Participant ID,Game ID,Round 1,Round 2,Round 3,Disorder,Website Choice
0,0,Sleep disturbance. Dental abnormalities. Stretchy skin. Persistent blue hands/feet. Fatigue,Thin skin. Frequent joint dislocation. Migraine. Joint pain. Limitation of joint mobility,Muscle pain. Constipation. Soft skin. Extra bones in the cranium. Keratoconus,Hypermobile Ehlers-Danlos syndrome,1. Collaborative Filtering
0,1,Picture: Conjunctival telangiectasia. Joint pain. Cognitive impairment,Nausea and vomiting. Lack of sweating. Spider veins,Nephrotic syndrome. Abnormal renal tubule morphology. Abnormal aortic valve morphology,Fabry disease,2. Malady Help
0,2,Feeding difficulties in infancy. Arthrogryposis multiplex congenita (bent joints that cannot be straightened). Susceptable to bleeding. Developmental regression. Abdominal pain,Fatigue. Fever. Difficulty swallowing. Bilateral tonic-clonic seizure,Retinopathy. Ataxia. Enlarged liver. Bone death due to lack of blood supply,Gaucher disease,3. Google Custom
1,0,Gum enlargement. Foot deformity. Drooping upper eyelid. Abnormality of the wrist. Genital hernia. Dry eyes. Arrhythmia,Vertigo. Breathing stops (episodes). Muscle pain. Depressivity. Frequent joint dislocation. Constipation,Bladder hernia. Joint pain. Joint hyperflexibility. Stretchy skin. Scoliosis. Decreased nerve conduction velocity,Hypermobile Ehlers-Danlos syndrome,2. Malady Help
1,1,Picture: thick lower lip. Anemia. Behavioral abnormality. Picture: Angiokeratoma (small raised dark-red spot). Seizure. Extreme thirst. Fatigue,Breathing difficulties. Vision loss. Mini-stroke. Picture: Subcutaneous nodule (skin lesion). Cognitive impairment. Hearing impairment,Abnormal aortic valve morphology. Cataract. Atrioventricular block. Abnormality of the endocardium. Nephrotic syndrome. Achalasia,Fabry disease,3. Google Custom
1,2,Abnormal bone structure. Misalignment of the eyes. Anemia. Bone pain. Involuntary movements. Joint pain,Fatigue. Difficulty swallowing. Paralysis or weakness of one side of the body. Tremor. Bone death due to lack of blood supply. Englarged spleen,Calcium deposits in the aortic valve. Retinopathy. Abnormal heart valve morphology. Abnormal pericardium morphology. Osteopenia: Decreased bone density. Calcium deposits in the mitral valve,Gaucher disease,1. Collaborative Filtering
2,0,Foot deformity. Abnormal palate (roof of the mouth). Muscle pain. Vertigo. Malabsorption,Frequent joint dislocation. Limitation of joint mobility. Thin skin. Acid reflux. Constipation,Joint pain. Arrhythmia. Joint hyperflexibility. Decreased fertility. Decreased nerve conduction velocity,Hypermobile Ehlers-Danlos syndrome,1. Collaborative Filtering
2,1,Delayed puberty. Congestive heart failure. Spider veins inside the mouth or conjunctiva or gastrointestinal tract or inner nose or trachoebronchial system. Hearing impairment. Cognitive impairment. Abdominal pain,Mini-stroke. Picture: Angiokeratoma (small raised dark-red spot). Picture: Subcutaneous nodule (skin lesion). Corneal opacity. Blood in urine. Optic atrophy,Kidney damage/Kidney disease. Atrioventricular block. Renal insufficiency. Malabsorption. Abnormal renal tubule morphology,Fabry disease,2. Malady Help
2,2,Feeding difficulties in infancy. Abnormal skin pigmentation. Anemia. Developmental regression. Fatigue,Corneal opacity. Bone pain. Osteolysis: Breakdown of bone. Enlarged liver,Low platelet count. Retinopathy. Pulmonary arterial hypertension: High blood pressure in lungs. Calcium deposits in the mitral valve,Gaucher disease,3. Google Custom
3,0,Gum enlargement. Dental abnormalities. Fatigue. Joint hyperflexibility. Thin skin,Vertigo. Persistent blue hands/feet. Arrhythmia. Muscle pain. Nausea and vomiting,Soft skin. Depressivity. Constipation. Decreased nerve conduction velocity,Hypermobile Ehlers-Danlos syndrome,2. Malady Help
3,1,Muscle pain. Arthritis. Spider veins inside the mouth or conjunctiva or gastrointestinal tract or inner nose or trachoebronchial system. Behavioral abnormality. Picture: Angiokeratoma (small raised dark-red spot). Blurred vision,Picture: Subcutaneous nodule (skin lesion). Abdominal pain. Joint pain. Spider veins. Mini-stroke. Hypertrophic cardiomyopathy,Kidney damage/Kidney disease. Diabetes insipidus. Mitral regurgitation. Renal insufficiency. Glomerulopathy (diseased blood vessels in the kidneys),Fabry disease,1. Collaborative Filtering
3,2,Delayed puberty. Breathing difficulties. Anemia. Fatigue. Abdominal pain,Blood in urine. Fever. Difficulty with horizontal voluntary eye movements. Generalized myoclonic seizures. Abnormal pericardium morphology,Enlarged liver. Calcium deposits in the aortic valve. Abnormal heart valve morphology. Ataxia,Gaucher disease,3. Google Custom
4,0,Sleep disturbance. Flat feet. Foot deformity. Vertigo. Joint pain. Constipation,Persistent blue hands/feet. Tingling/pins and needles. Menstrual abnormalities (frequency heaviness irregularity). Breathing stops (episodes). Arrhythmia,Stretchy skin. Dry eyes. Muscle pain. Extra bones in the cranium. Gastrointestinal dysmotility,Hypermobile Ehlers-Danlos syndrome,2. Malady Help
4,1,Short stature. Muscle pain. Abdominal pain. Hearing impairment. Picture: Subcutaneous nodule (skin lesion). Mini-stroke. Nausea and vomiting,Picture: Conjunctival telangiectasia. Congestive heart failure. Blood in urine. Spider veins. Lack of sweating. Arthritis. Joint pain,Abnormal myocardium morphology. Renal insufficiency. Atrioventricular block. Nephrotic syndrome. High blood pressure. Kidney damage/Kidney disease,Fabry disease,1. Collaborative Filtering
4,2,Misalignment of the eyes. Delayed skeletal maturation. Difficulty with horizontal voluntary eye movements. Hearing impairment. Developmental regression,Fever. Depressivity. Double vision. Osteopenia: Decreased bone density. Interstitial pulmonary abnormality,Abnormal heart valve morphology. Calcium deposits in the mitral valve. Ataxia. Englarged spleen. Enlarged liver,Gaucher disease,3. Google Custom
5,0,Gum enlargement. Flat feet. Muscle pain. Joint hyperflexibility. Vertigo. Constipation,Umbilical hernia. Dry eyes. Persistent blue hands/feet. Soft skin. Abnormal anus or rectum. Fatigue,Osteoarthritis. Stretchy skin. Joint pain. Gastrointestinal dysmotility. Keratoconus,Hypermobile Ehlers-Danlos syndrome,3. Google Custom
5,1,Picture: thick lower lip. Spider veins inside the mouth or conjunctiva or gastrointestinal tract or inner nose or trachoebronchial system. Picture: Angiokeratoma (small raised dark-red spot). Nausea and vomiting. Chest pain,Vision loss. Arthritis. Fatigue. Muscle pain. Mini-stroke,Abnormal aortic valve morphology. Kidney damage/Kidney disease. Corneal dystrophy. Elevated or lowered cholesteral. Renal insufficiency,Fabry disease,2. Malady Help
5,2,Abnormal bone structure. Delayed puberty. Bone pain. Depressivity,Breathing difficulties. Fatigue. Recurrent fractures. Anemia,Englarged spleen. Bilateral tonic-clonic seizure. Abnormality of the skeletal system. Abnormal macular morphology,Gaucher disease,1. Collaborative Filtering
6,0,Sleep disturbance. Foot deformity. Flat feet. Thin skin. Joint pain. Arrhythmia. Vertigo,Fatigue. Depressivity. Osteoarthritis. Joint hyperflexibility. Nausea and vomiting. Persistent blue hands/feet,Dry eyes. Constipation. Migraine. Muscle pain. Extra bones in the cranium. Decreased nerve conduction velocity,Hypermobile Ehlers-Danlos syndrome,1. Collaborative Filtering
6,1,Short stature. Picture: Angiokeratoma (small raised dark-red spot). Picture: Conjunctival telangiectasia. Vertigo. Abdominal pain. Corneal opacity. Anorexia,Behavioral abnormality. Picture: Subcutaneous nodule (skin lesion). Spider veins inside the mouth or conjunctiva or gastrointestinal tract or inner nose or trachoebronchial system. Fever. Hearing impairment. Muscle pain. Spider veins,Chest pain. Renal insufficiency. Mitral regurgitation. Nephrotic syndrome. Kidney damage/Kidney disease. Atrioventricular block. Optic atrophy,Fabry disease,2. Malady Help
6,2,Feeding difficulties in infancy. Depressivity. Recurrent fractures. Involuntary movements. Bone pain,Changes in coordination and speed of movements. Developmental regression. Joint dislocation. Bilateral tonic-clonic seizure. Englarged spleen,Enlarged ventricular system of the brain. Low blood cell count. Low platelet count. Replacement of normal lung tissues by fibroblasts and collagen. Abnormality of the skeletal system,Gaucher disease,3. Google Custom
7,0,Foot deformity. Dental abnormalities. Prominent eye folds. Joint hyperflexibility. Joint pain,Frequent joint dislocation. Vertigo. Stretchy skin. Arrhythmia. Bladder hernia,Muscle pain. Fatigue. Malabsorption. Gastrointestinal dysmotility,Hypermobile Ehlers-Danlos syndrome,3. Google Custom
7,1,Seizure. Lack of sweating. Anemia. Corneal opacity. Hearing impairment. Thickened skin,Abdominal pain. Muscle pain. Anxiety. Anorexia. Mini-stroke. Congestive heart failure,Kidney damage/Kidney disease. Abnormality of the endocardium. Elevated or lowered cholesteral. Optic atrophy. Abnormal myocardium morphology. Renal insufficiency,Fabry disease,2. Malady Help
7,2,Delayed skeletal maturation. Short stature. Misalignment of the eyes. Anemia. Fatigue,Abdominal pain. Joint pain. Depressivity. Recurrent fractures. Joint dislocation,Ataxia. Englarged spleen. Hydrocephalus (too much cerebrospinal fluid in the brain). Interstitial pulmonary abnormality. Retinopathy,Gaucher disease,1. Collaborative Filtering
8,0,Foot deformity. Flat feet. Muscle pain. Vertigo. Fatigue,Osteoarthritis. Soft skin. Migraine. Nausea and vomiting. Malabsorption,Stretchy skin. Unusual scars. Frequent joint dislocation. Poorly functioning veins. Keratoconus,Hypermobile Ehlers-Danlos syndrome,1. Collaborative Filtering
8,1,Congestive heart failure. Spider veins inside the mouth or conjunctiva or gastrointestinal tract or inner nose or trachoebronchial system. Spider veins. Blurred vision. Fatigue,Corneal opacity. Nausea and vomiting. Thickened skin. Cataract,Optic atrophy. Malabsorption. Corneal dystrophy. Renal insufficiency,Fabry disease,3. Google Custom
8,2,Abnormal bone structure. Delayed skeletal maturation. Joint pain. Paralysis or weakness of one side of the body. Anemia,Fatigue. Joint dislocation. Bone pain. Enlarged liver. Elevated C-reactive protein level,Calcium deposits in the mitral valve. Bone infection. Low platelet count. Replacement of normal lung tissues by fibroblasts and collagen. Englarged spleen,Gaucher disease,2. Malady Help
9,0,Sleep disturbance. Foot deformity. Frequent joint dislocation. Persistent blue hands/feet. Vertigo,Malabsorption. Tendon rupture. Muscle pain. Migraine. Fatigue,Arrhythmia. Depressivity. Nausea and vomiting. Stretchy skin. Extra bones in the cranium,Hypermobile Ehlers-Danlos syndrome,1. Collaborative Filtering
9,1,Joint pain. Spider veins. Spider veins inside the mouth or conjunctiva or gastrointestinal tract or inner nose or trachoebronchial system. Blurred vision,Picture: Subcutaneous nodule (skin lesion). Lack of sweating. Seizure. Arthritis,Malabsorption. Abnormal aortic valve morphology. Renal insufficiency. Cataract,Fabry disease,3. Google Custom
9,2,Delayed skeletal maturation. Difficulty swallowing. Joint pain. Anemia,Depressivity. Bleeding gums. Bilateral tonic-clonic seizure. Generalized myoclonic seizures,Osteopenia: Decreased bone density. Bone death due to lack of blood supply. Englarged spleen. Enlarged liver,Gaucher disease,2. Malady Help
10,0,Foot deformity. Prominent eye folds. Abnormal palate (roof of the mouth). Small teeth. Acid reflux. Vertigo. Nausea and vomiting,Tendon rupture. Breathing stops (episodes). Persistent blue hands/feet. Constipation. Joint hyperflexibility. Depressivity,Malabsorption. Menstrual abnormalities (frequency heaviness irregularity). Joint pain. Frequent joint dislocation. Decreased nerve conduction velocity. Extra bones in the cranium,Hypermobile Ehlers-Danlos syndrome,2. Malady Help
10,1,Delayed puberty. Anemia. Cognitive impairment. Spider veins inside the mouth or conjunctiva or gastrointestinal tract or inner nose or trachoebronchial system. Behavioral abnormality,Blood in urine. Arthritis. Blurred vision. Fatigue,Kidney damage/Kidney disease. Nephrotic syndrome. Reduced bone mineral density. Emphysema,Fabry disease,3. Google Custom
10,2,Feeding difficulties in infancy. Abnormal bone structure. Anemia. Corneal opacity. Double vision,Abdominal pain. Depressivity. Tremor. Enlarged liver,Abnormality of the skeletal system. Hepatitis. Bone death due to lack of blood supply. Retinopathy,Gaucher disease,1. Collaborative Filtering
11,0,Foot deformity. Drooping upper eyelid. Osteoarthritis. Vertigo. Thin skin,Tingling/pins and needles. Fatigue. Stretchy skin. Joint pain,Malabsorption. Soft skin. Extra bones in the cranium. Decreased nerve conduction velocity,Hypermobile Ehlers-Danlos syndrome,1. Collaborative Filtering
11,1,Short stature. Blood in urine. Lack of sweating. Muscle pain. Picture: Subcutaneous nodule (skin lesion). Thickened skin. Arthritis,Corneal opacity. Spider veins. Developmental regression. Nausea and vomiting. Arrhythmia. Corneal dystrophy,Abnormal myocardium morphology. Abnormal aortic valve morphology. Nephrotic syndrome. Malabsorption. Renal insufficiency. Emphysema,Fabry disease,3. Google Custom
11,2,Delayed puberty. Depressivity. Abdominal pain. Limited eye movements,Decreased muscle tone. Developmental regression. Abnormality of the skeletal system,Ataxia. Englarged spleen. Osteolysis: Breakdown of bone,Gaucher disease,2. Malady Help
12,0,Gum enlargement. Dental abnormalities. Frequent joint dislocation. Umbilical hernia. Nausea and vomiting,Osteoarthritis. Fatigue. Vertigo. Acid reflux. Joint hyperflexibility,Constipation. Muscle pain. Absent/small abdominal wall muscles. Gastrointestinal dysmotility,Hypermobile Ehlers-Danlos syndrome,3. Google Custom
12,1,Picture: thick lower lip. Nausea and vomiting. Thickened skin. Blood in urine. Breathing difficulties,Mini-stroke. Congestive heart failure. Fatigue. Abdominal pain. Abnormal renal tubule morphology,Optic atrophy. Cataract. Sensorineural hearing impairment. Malabsorption,Fabry disease,2. Malady Help
12,2,Feeding difficulties in infancy. Delayed puberty. Dry scales on the skin. Changes in coordination and speed of movements. Joint pain,Developmental regression. Fever. Hydrocephalus (too much cerebrospinal fluid in the brain). Interstitial pulmonary abnormality,Increased bone mineral density. Enlarged liver. Elevated C-reactive protein level. Abnormality of the skeletal system,Gaucher disease,1. Collaborative Filtering
13,0,Sleep disturbance. Foot deformity. Depressivity. Fatigue. Nausea and vomiting,Muscle pain. Osteoarthritis. Constipation. Migraine. Malabsorption,Stretchy skin. Thin skin. Arrhythmia. Absent/small abdominal wall muscles. Extra bones in the cranium,Hypermobile Ehlers-Danlos syndrome,2. Malady Help
13,1,Spider veins. Anemia. Cognitive impairment. Lack of sweating,Corneal opacity. Blood in urine. Joint pain. Muscle pain,Optic atrophy. Corneal dystrophy. Nephrotic syndrome. Bundle branch block,Fabry disease,3. Google Custom
13,2,Feeding difficulties in infancy. Delayed puberty. Anemia. Susceptable to bleeding. Bone pain,Bleeding gums. Difficulty swallowing. Difficulty with horizontal voluntary eye movements. Englarged spleen. Low platelet count,Abnormal pericardium morphology. Replacement of normal lung tissues by fibroblasts and collagen. Cherry red spot of the macula. Calcium deposits in the mitral valve,Gaucher disease,1. Collaborative Filtering
14,0,Small teeth. Prominent eye folds. Gum enlargement. Joint hyperflexibility. Decreased fertility. Thin skin,Joint pain. Osteoarthritis. Frequent joint dislocation. Stretchy skin. Depressivity. Tingling/pins and needles,Nausea and vomiting. Muscle pain. Vertigo. Umbilical hernia. Extra bones in the cranium,Hypermobile Ehlers-Danlos syndrome,2. Malady Help
14,1,Short stature. Abdominal pain. Anemia. Picture: Conjunctival telangiectasia. Arthritis. Lack of sweating,Cognitive impairment. Persistent swelling in arm/leg. Arrhythmia. Fever. Congestive heart failure,Nephrotic syndrome. Elevated or lowered cholesteral. Glomerulopathy (diseased blood vessels in the kidneys). Bundle branch block. Abnormal aortic valve morphology,Fabry disease,1. Collaborative Filtering
14,2,Feeding difficulties in infancy. Delayed puberty. Anemia. Joint dislocation. Joint stiffness. Bleeding gums,Recurrent fractures. Bone pain. Joint pain. Enlarged liver. Bone infection,Osteopenia: Decreased bone density. Abnormal heart valve morphology. Calcium deposits in the aortic valve. Generalized myoclonic seizures. Low platelet count,Gaucher disease,3. Google Custom
15,0,Sleep disturbance. Abnormality of the wrist. Vertigo. Arrhythmia. Abnormal anus or rectum. Constipation,Persistent blue hands/feet. Frequent joint dislocation. Stretchy skin. Fatigue. Joint pain,Menstrual abnormalities (frequency heaviness irregularity). Tingling/pins and needles. Joint hyperflexibility. Gastrointestinal dysmotility. Extra bones in the cranium,Hypermobile Ehlers-Danlos syndrome,1. Collaborative Filtering
15,1,Spider veins inside the mouth or conjunctiva or gastrointestinal tract or inner nose or trachoebronchial system. Mini-stroke. Anorexia. Muscle pain. Developmental regression. Spider veins,Anemia. Arrhythmia. Cognitive impairment. Picture: Angiokeratoma (small raised dark-red spot). Abdominal pain. Vision loss,Nephrotic syndrome. Elevated or lowered cholesteral. Abnormal aortic valve morphology. Corneal dystrophy. Emphysema,Fabry disease,2. Malady Help
15,2,Delayed skeletal maturation. Abnormal bone structure. Anemia. Bone pain. Difficulty swallowing. Developmental regression,Bleeding gums. Hearing impairment. Decreased muscle tone. Abnormal skin pigmentation. Enlarged liver. Cranial nerve paralysis,Bilateral tonic-clonic seizure. Osteopenia: Decreased bone density. High urine protein levels. Hydrocephalus (too much cerebrospinal fluid in the brain). Increased bone mineral density. Bone death due to lack of blood supply,Gaucher disease,3. Google Custom
16,0,Gum enlargement. Foot deformity. Vertigo. Fatigue. Persistent blue hands/feet. Inguinal hernia,Limitation of joint mobility. Stretchy skin. Unusual scars. Umbilical hernia. Joint hyperflexibility. Scoliosis,Nausea and vomiting. Tingling/pins and needles. Joint pain. Extra bones in the cranium. Absent/small abdominal wall muscles,Hypermobile Ehlers-Danlos syndrome,1. Collaborative Filtering
16,1,Arthritis. Progressive airflow obstruction. Picture: Angiokeratoma (small raised dark-red spot). Picture: Subcutaneous nodule (skin lesion). Cognitive impairment,Breathing difficulties. Picture: Conjunctival telangiectasia. Vertigo. Elevated or lowered cholesteral,Malabsorption. Cataract. High urine protein levels. Emphysema,Fabry disease,2. Malady Help
16,2,Feeding difficulties in infancy. Delayed skeletal maturation. Osteoarthritis. Anemia. Joint pain,Susceptable to bleeding. Bone pain. Retinopathy. Abnormality of the skeletal system,Enlarged liver. Osteolysis: Breakdown of bone. Low platelet count. Increased bone mineral density,Gaucher disease,3. Google Custom
17,0,Small teeth. Sleep disturbance. Foot deformity. Menstrual abnormalities (frequency heaviness irregularity). Vertigo. Constipation,Fatigue. Joint pain. Unusual scars. Stretchy skin. Muscle pain,Acid reflux. Arrhythmia. Breathing stops (episodes). Malabsorption. Extra bones in the cranium,Hypermobile Ehlers-Danlos syndrome,3. Google Custom
17,1,Short stature. Abdominal pain. Hearing impairment. Muscle pain. Picture: Angiokeratoma (small raised dark-red spot). Joint pain,Spider veins. Blood in urine. Mini-stroke. Fatigue. Lack of sweating. Spider veins inside the mouth or conjunctiva or gastrointestinal tract or inner nose or trachoebronchial system,Corneal dystrophy. Atrioventricular block. Mitral regurgitation. Emphysema. Bundle branch block,Fabry disease,1. Collaborative Filtering
17,2,Misalignment of the eyes. Fever. Difficulty swallowing. Abdominal pain,Developmental regression. Fatigue. Changes in coordination and speed of movements. Bilateral tonic-clonic seizure,Englarged spleen. Generalized myoclonic seizures. Enlarged ventricular system of the brain. Osteolysis: Breakdown of bone,Gaucher disease,2. Malady Help
18,0,Sleep disturbance. Foot deformity. Dental abnormalities. Tingling/pins and needles. Arrhythmia. Stretchy skin. Malabsorption,Joint hyperflexibility. Bladder hernia. Constipation. Thin skin. Muscle pain. Vertigo. Migraine,Limitation of joint mobility. Joint pain. Depressivity. Fatigue. Persistent blue hands/feet. Poorly functioning veins. Extra bones in the cranium,Hypermobile Ehlers-Danlos syndrome,3. Google Custom
18,1,Anorexia. Breathing difficulties. Blood in urine. Mini-stroke. Thickened skin,Arthritis. Congestive heart failure. Spider veins. Kidney damage/Kidney disease,Nephrotic syndrome. Abnormal aortic valve morphology. Bundle branch block. Atrioventricular block,Fabry disease,1. Collaborative Filtering
18,2,Misalignment of the eyes. Arthrogryposis multiplex congenita (bent joints that cannot be straightened). Anemia. Fever. Osteoarthritis,Changes in coordination and speed of movements. Difficulty swallowing. Recurrent fractures. Double vision. Increased bone mineral density,Enlarged liver. Abnormality of the skeletal system. Bone death due to lack of blood supply. Increased antibody level in blood. Osteopenia: Decreased bone density,Gaucher disease,2. Malady Help
19,0,Prominent eye folds. Small teeth. Abnormal palate (roof of the mouth). Arrhythmia. Fatigue. Vertigo,Soft skin. Stretchy skin. Joint hyperflexibility. Frequent joint dislocation. Constipation,Malabsorption. Scoliosis. Migraine. Limitation of joint mobility. Extra bones in the cranium,Hypermobile Ehlers-Danlos syndrome,1. Collaborative Filtering
19,1,Blurred vision. Congestive heart failure. Picture: Conjunctival telangiectasia,Anxiety. Picture: Subcutaneous nodule (skin lesion). Anemia,Nephrotic syndrome. Corneal dystrophy. Abnormal aortic valve morphology,Fabry disease,2. Malady Help
19,2,Misalignment of the eyes. Delayed puberty. Bone pain. Involuntary movements. Blood in urine. Tremor,Fever. Abdominal pain. Fatigue. Corneal opacity. Low platelet count. Generalized myoclonic seizures,Ataxia. Bone infection. Enlarged liver. Englarged spleen. Replacement of normal lung tissues by fibroblasts and collagen. Osteopenia: Decreased bone density,Gaucher disease,3. Google Custom
20,0,Gum abnormalities. Dental abnormalities. Persistent blue hands/feet. Constipation. Joint pain,Scoliosis. Malabsorption. Muscle pain. Inflamed gums. Frequent joint dislocation,Migraine. Inguinal hernia. Bladder hernia. Tingling/pins and needles. Extra bones in the cranium,Hypermobile Ehlers-Danlos syndrome,2. Malady Help
20,1,Delayed puberty. Muscle pain. Fatigue. Congestive heart failure. Cognitive impairment,Anemia. Blurred vision. Corneal opacity. Abdominal pain. Anxiety,Arthritis. Breathing difficulties. Malabsorption. Achalasia. High urine protein levels,Fabry disease,3. Google Custom
20,2,Delayed skeletal maturation. Delayed puberty. Joint pain. Developmental regression. Joint stiffness,Changes in coordination and speed of movements. Depressivity. Low blood cell count. High urine protein levels. Bone death due to lack of blood supply,Cherry red spot of the macula. Low platelet count. Replacement of normal lung tissues by fibroblasts and collagen. Englarged spleen,Gaucher disease,1. Collaborative Filtering
21,0,Gum abnormalities. Sleep disturbance. Foot deformity. Thin skin. Umbilical hernia,Migraine. Arrhythmia. Dry eyes. Tendon rupture. Tingling/pins and needles,Joint pain. Muscle pain. Joint hyperflexibility. Poorly functioning veins. Decreased nerve conduction velocity,Hypermobile Ehlers-Danlos syndrome,2. Malady Help
21,1,Picture: Conjunctival telangiectasia. Spider veins. Anemia. Developmental regression. Blurred vision,Mini-stroke. Blood in urine. Arthritis. Fatigue,Corneal dystrophy. Elevated or lowered cholesteral. Abnormal aortic valve morphology. Bundle branch block,Fabry disease,3. Google Custom
21,2,Delayed puberty. Bone pain. Difficulty swallowing. Abdominal pain. Involuntary movements,Fever. Changes in coordination and speed of movements. Cranial nerve paralysis. Bilateral tonic-clonic seizure. Abnormal myocardium morphology,Enlarged liver. Bone infection. Abnormality of the skeletal system. Bone death due to lack of blood supply,Gaucher disease,1. Collaborative Filtering
22,0,Sleep disturbance. Prominent eye folds. Osteoarthritis. Persistent blue hands/feet. Nausea and vomiting,Fatigue. Inguinal hernia. Migraine. Muscle pain. Thin skin,Abnormal anus or rectum. Limitation of joint mobility. Depressivity. Malabsorption. Decreased nerve conduction velocity,Hypermobile Ehlers-Danlos syndrome,2. Malady Help
22,1,Mini-stroke. Fatigue. Hearing impairment. Developmental regression,Anxiety. Arrhythmia. Picture: Subcutaneous nodule (skin lesion). Abnormality of femur morphology,Nephrotic syndrome. Mitral regurgitation. Abnormal aortic valve morphology,Fabry disease,1. Collaborative Filtering
22,2,Abnormal bone structure. Feeding difficulties in infancy. Anemia. Bone pain. Bleeding gums. Joint pain,Fever. Dry scales on the skin. Depressivity. Breathing difficulties. Increased bone mineral density. High urine protein levels,Englarged spleen. Replacement of normal lung tissues by fibroblasts and collagen. Low platelet count. Ataxia. Abnormal macular morphology,Gaucher disease,3. Google Custom
23,0,Sleep disturbance. Prominent eye folds. Depressivity. Stretchy skin. Frequent joint dislocation,Inflamed gums. Joint hyperflexibility. Umbilical hernia. Osteoarthritis. Muscle pain,Fatigue. Persistent blue hands/feet. Genital hernia. Extra bones in the cranium,Hypermobile Ehlers-Danlos syndrome,2. Malady Help
23,1,Picture: thick lower lip. Picture: Angiokeratoma (small raised dark-red spot). Congestive heart failure. Vision loss. Picture: Subcutaneous nodule (skin lesion),Depressivity. Thickened skin. Behavioral abnormality. Increased urine output. Abdominal pain,Mini-stroke. Achalasia. Emphysema. Corneal dystrophy,Fabry disease,3. Google Custom
23,2,Feeding difficulties in infancy. Delayed puberty. Abdominal pain. Joint pain. Susceptable to bleeding. Depressivity,Difficulty swallowing. Hearing impairment. Abnormal skin pigmentation. Elevated C-reactive protein level. Enlarged liver. Ataxia,Cherry red spot of the macula. Calcium deposits in the aortic valve. Abnormal heart valve morphology. Bilateral tonic-clonic seizure. Englarged spleen,Gaucher disease,1. Collaborative Filtering
24,0,Foot deformity. Sleep disturbance. Arrhythmia. Malabsorption. Vertigo,Osteoarthritis. Umbilical hernia. Muscle pain. Depressivity. Joint hyperflexibility,Persistent blue hands/feet. Dry eyes. Stretchy skin. Extra bones in the cranium,Hypermobile Ehlers-Danlos syndrome,1. Collaborative Filtering
24,1,Picture: Angiokeratoma (small raised dark-red spot). Fatigue. Nausea and vomiting. Spider veins inside the mouth or conjunctiva or gastrointestinal tract or inner nose or trachoebronchial system. Depressivity,Seizure. Abdominal pain. Mini-stroke. Increased urine output. Atrioventricular block,Mitral regurgitation. Sensorineural hearing impairment. Emphysema. Malabsorption,Fabry disease,3. Google Custom
24,2,Abnormal bone structure. Breathing difficulties. Joint pain. Bone pain,Bleeding gums. Anemia. Joint stiffness. Cranial nerve paralysis,Hydrocephalus (too much cerebrospinal fluid in the brain). Osteopenia: Decreased bone density. Abnormal myocardium morphology. Abnormality of the skeletal system,Gaucher disease,2. Malady Help
25,0,Sleep disturbance. Drooping upper eyelid. Migraine. Osteoarthritis. Dry eyes,Inflamed gums. Muscle pain. Persistent blue hands/feet. Stretchy skin. Tendon rupture,Soft skin. Nausea and vomiting. Menstrual abnormalities (frequency heaviness irregularity). Gastrointestinal dysmotility,Hypermobile Ehlers-Danlos syndrome,3. Google Custom
25,1,Delayed puberty. Blood in urine. Picture: Conjunctival telangiectasia. Arthritis. Anemia. Abdominal pain,Fatigue. Lack of sweating. Seizure. Muscle pain. Picture: Subcutaneous nodule (skin lesion). Arrhythmia,Emphysema. Malabsorption. Reduced bone mineral density. Renal insufficiency. Hypertrophic cardiomyopathy. Corneal dystrophy,Fabry disease,2. Malady Help
25,2,Feeding difficulties in infancy. Arthrogryposis multiplex congenita (bent joints that cannot be straightened). Double vision. Developmental regression. Difficulty swallowing,Abdominal pain. Anemia. Generalized myoclonic seizures. Low platelet count,Abnormal pericardium morphology. Replacement of normal lung tissues by fibroblasts and collagen. Hepatitis. Ataxia,Gaucher disease,1. Collaborative Filtering
26,0,Flat feet. Gum enlargement. Constipation. Fatigue. Breathing stops (episodes). Scoliosis,Muscle pain. Thin skin. Migraine. Vertigo. Soft skin. Nausea and vomiting,Joint pain. Frequent joint dislocation. Genital hernia. Stretchy skin. Decreased nerve conduction velocity. Extra bones in the cranium,Hypermobile Ehlers-Danlos syndrome,1. Collaborative Filtering
26,1,Picture: coarse facial features. Picture: Angiokeratoma (small raised dark-red spot). Spider veins. Anemia. Joint pain,Hearing impairment. Fatigue. Behavioral abnormality. Depressivity. Seizure,Cataract. Atrioventricular block. Optic atrophy. Emphysema. Renal insufficiency,Fabry disease,3. Google Custom
26,2,Feeding difficulties in infancy. Delayed skeletal maturation. Fever. Corneal opacity. Abdominal pain. Joint pain,Changes in coordination and speed of movements. Paralysis or weakness of one side of the body. Fatigue. Ataxia. Generalized myoclonic seizures,Calcium deposits in the mitral valve. Bone infection. Osteopenia: Decreased bone density. Hepatitis. Osteolysis: Breakdown of bone,Gaucher disease,2. Malady Help
27,0,Foot deformity. Sleep disturbance. Migraine. Frequent joint dislocation. Inflamed gums,Abnormal anus or rectum. Constipation. Fatigue. Joint hyperflexibility,Bladder hernia. Depressivity. Persistent blue hands/feet. Decreased nerve conduction velocity,Hypermobile Ehlers-Danlos syndrome,3. Google Custom
27,1,Picture: Conjunctival telangiectasia. Fatigue. Hearing impairment. Arthritis,Behavioral abnormality. Thickened skin. Picture: Angiokeratoma (small raised dark-red spot). Anemia,Renal insufficiency. Emphysema. Hypertrophic cardiomyopathy. Atrioventricular block,Fabry disease,1. Collaborative Filtering
27,2,Delayed skeletal maturation. Delayed puberty. Changes in coordination and speed of movements. Osteoarthritis. Fever. Joint dislocation,Difficulty swallowing. Developmental regression. Recurrent fractures. Osteopenia: Decreased bone density. Englarged spleen,Abnormality of the skeletal system. Bone death due to lack of blood supply. Low platelet count. Pulmonary arterial hypertension: High blood pressure in lungs. Generalized myoclonic seizures,Gaucher disease,2. Malady Help
28,0,Small teeth. Foot deformity. Depressivity. Limitation of joint mobility. Persistent blue hands/feet,Stretchy skin. Joint pain. Frequent joint dislocation. Fatigue. Tendon rupture,Muscle pain. Migraine. Nausea and vomiting. Extra bones in the cranium,Hypermobile Ehlers-Danlos syndrome,3. Google Custom
28,1,Picture: thick lower lip. Vision loss. Hearing impairment. Picture: Subcutaneous nodule (skin lesion). Thickened skin,Arthritis. Cognitive impairment. Abdominal pain. Muscle pain. Spider veins inside the mouth or conjunctiva or gastrointestinal tract or inner nose or trachoebronchial system,Mitral regurgitation. High urine protein levels. Malabsorption. Optic atrophy. Reduced bone mineral density,Fabry disease,1. Collaborative Filtering
28,2,Short stature. Misalignment of the eyes. Osteoarthritis. Fatigue. Paralysis or weakness of one side of the body,Decreased muscle tone. Bleeding gums. Joint stiffness. Difficulty swallowing. Enlarged liver,Bilateral tonic-clonic seizure. Osteopenia: Decreased bone density. Abnormality of the skeletal system. Elevated C-reactive protein level,Gaucher disease,2. Malady Help
29,0,Sleep disturbance. Gum enlargement. Joint hyperflexibility. Malabsorption. Muscle pain. Fatigue,Arrhythmia. Acid reflux. Frequent joint dislocation. Breathing stops (episodes). Depressivity. Vertigo,Joint pain. Stretchy skin. Tingling/pins and needles. Osteolysis: Breakdown of bone. Decreased nerve conduction velocity,Hypermobile Ehlers-Danlos syndrome,1. Collaborative Filtering
29,1,Spider veins inside the mouth or conjunctiva or gastrointestinal tract or inner nose or trachoebronchial system. Behavioral abnormality. Picture: Conjunctival telangiectasia. Abdominal pain. Vision loss,Congestive heart failure. Joint pain. Muscle pain. Emphysema,Kidney damage/Kidney disease. Abnormality of the endocardium. Nephrotic syndrome. Renal insufficiency,Fabry disease,3. Google Custom
29,2,Hydrops fetalis: prenatal swelling. Abnormal bone structure. Fatigue. Fever. Developmental regression. Joint pain. Depressivity,Joint stiffness. Dry scales on the skin. Joint dislocation. Double vision. Abdominal pain. Hydrocephalus (too much cerebrospinal fluid in the brain),Enlarged ventricular system of the brain. Englarged spleen. Ataxia. Osteopenia: Decreased bone density. Enlarged liver. Bone infection,Gaucher disease,2. Malady Help
30,0,Sleep disturbance. Foot deformity. Dental abnormalities. Muscle pain. Frequent joint dislocation,Stretchy skin. Acid reflux. Dry eyes. Fatigue. Persistent blue hands/feet,Vertigo. Osteoarthritis. Joint pain. Soft skin. Decreased nerve conduction velocity,Hypermobile Ehlers-Danlos syndrome,1. Collaborative Filtering
30,1,Arthritis. Thickened skin. Joint pain. Spider veins. Hearing impairment,Blood in urine. Muscle pain. Congestive heart failure. Developmental regression. Corneal opacity,Renal insufficiency. Corneal dystrophy. Elevated or lowered cholesteral. Achalasia. Malabsorption,Fabry disease,2. Malady Help
30,2,Hydrops fetalis: prenatal swelling. Misalignment of the eyes. Fever. Depressivity. Fatigue,Abdominal pain. Joint pain. Double vision. Increased antibody level in blood. Osteopenia: Decreased bone density,Cherry red spot of the macula. Calcium deposits in the aortic valve. Abnormal myocardium morphology. Generalized myoclonic seizures,Gaucher disease,3. Google Custom
31,0,Flat feet. Sleep disturbance. Abnormal anus or rectum. Osteoarthritis. Joint hyperflexibility,Migraine. Stretchy skin. Muscle pain. Scoliosis. Frequent joint dislocation,Menstrual abnormalities (frequency heaviness irregularity). Nausea and vomiting. Genital hernia. Separation of layers of an artery,Hypermobile Ehlers-Danlos syndrome,1. Collaborative Filtering
31,1,Lack of sweating. Anemia. Fatigue. Mini-stroke. Picture: Subcutaneous nodule (skin lesion). Congestive heart failure,Developmental regression. Progressive airflow obstruction. Picture: Conjunctival telangiectasia. Anorexia. Muscle pain. Achalasia,Cataract. Bundle branch block. Optic atrophy. Abnormal aortic valve morphology. Kidney damage/Kidney disease,Fabry disease,2. Malady Help
31,2,Feeding difficulties in infancy. Delayed skeletal maturation. Abdominal pain. Fatigue. Fever. Joint dislocation,Developmental regression. Bone pain. Difficulty swallowing. Recurrent fractures. Osteoarthritis,Enlarged liver. Low platelet count. Hepatitis. High urine protein levels. Calcium deposits in the mitral valve,Gaucher disease,3. Google Custom
32,0,Foot deformity. Abnormal palate (roof of the mouth). Vertigo. Frequent joint dislocation. Umbilical hernia,Dry eyes. Fatigue. Joint hyperflexibility. Scoliosis. Unusual scars,Thin skin. Tingling/pins and needles. Depressivity. Constipation. Extra bones in the cranium,Hypermobile Ehlers-Danlos syndrome,3. Google Custom
32,1,Abdominal pain. Hearing impairment. Congestive heart failure. Chest pain. Blood in urine,Muscle pain. Picture: Conjunctival telangiectasia. Lack of sweating. Thickened skin. Mitral regurgitation,Nephrotic syndrome. Corneal dystrophy. Renal insufficiency. Emphysema,Fabry disease,2. Malady Help
32,2,Hydrops fetalis: prenatal swelling. Feeding difficulties in infancy. Recurrent fractures. Joint pain. Joint dislocation. Developmental regression,Anemia. Fever. Difficulty swallowing. Paralysis or weakness of one side of the body. Pulmonary arterial hypertension: High blood pressure in lungs. Cherry red spot of the macula,Englarged spleen. Cranial nerve paralysis. Abnormal heart valve morphology. Low platelet count. Osteopenia: Decreased bone density. Generalized myoclonic seizures,Gaucher disease,1. Collaborative Filtering
33,0,Flat feet. Foot deformity. Abnormality of the wrist. Persistent blue hands/feet. Frequent joint dislocation. Fatigue,Stretchy skin. Picture: Subcutaneous nodule (skin lesion). Muscle pain. Osteoarthritis. Abnormal anus or rectum. Arrhythmia,Nausea and vomiting. Limitation of joint mobility. Umbilical hernia. Joint pain. Extra bones in the cranium. Widening of main artery,Hypermobile Ehlers-Danlos syndrome,2. Malady Help
33,1,Breathing difficulties. Blurred vision. Thickened skin. Mini-stroke. Spider veins inside the mouth or conjunctiva or gastrointestinal tract or inner nose or trachoebronchial system,Anorexia. Picture: Conjunctival telangiectasia. Spider veins. Corneal opacity. Muscle pain,Nausea and vomiting. Hypertrophic cardiomyopathy. Optic atrophy. Emphysema. Abnormal renal tubule morphology,Fabry disease,1. Collaborative Filtering
33,2,Delayed skeletal maturation. Joint dislocation. Bone pain. Difficulty swallowing. Anemia,Developmental regression. Changes in coordination and speed of movements. Hearing impairment. Ataxia. Abnormality of the skeletal system,Bilateral tonic-clonic seizure. Hepatitis. Englarged spleen. High urine protein levels,Gaucher disease,3. Google Custom
34,0,Small teeth. Sleep disturbance. Foot deformity. Thin skin. Stretchy skin. Fatigue,Osteoarthritis. Dry eyes. Picture: Subcutaneous nodule (skin lesion). Persistent blue hands/feet. Nausea and vomiting. Menstrual abnormalities (frequency heaviness irregularity),Soft skin. Constipation. Frequent joint dislocation. Limitation of joint mobility. Extra bones in the cranium. Absent/small abdominal wall muscles,Hypermobile Ehlers-Danlos syndrome,3. Google Custom
34,1,Thickened skin. Breathing difficulties. Fatigue. Developmental regression. Behavioral abnormality,Muscle pain. Picture: Subcutaneous nodule (skin lesion). Picture: Conjunctival telangiectasia. Elevated or lowered cholesteral. Glomerulopathy (diseased blood vessels in the kidneys),Emphysema. High urine protein levels. Diabetes insipidus. Atrioventricular block,Fabry disease,1. Collaborative Filtering
34,2,Delayed puberty. Arthrogryposis multiplex congenita (bent joints that cannot be straightened). Blood in urine. Depressivity. Abdominal pain. Joint pain,Decreased muscle tone. Paralysis or weakness of one side of the body. Difficulty with horizontal voluntary eye movements. Joint dislocation. Retinopathy. Elevated C-reactive protein level,Abnormal myocardium morphology. Scarring of liver caused by chronic liver disease. Enlarged liver. Englarged spleen. Low platelet count. Replacement of normal lung tissues by fibroblasts and collagen,Gaucher disease,2. Malady Help
35,0,Flat feet. Sleep disturbance. Fatigue. Soft skin. Decreased fertility. Vertigo,Joint hyperflexibility. Arrhythmia. Frequent joint dislocation. Migraine. Thin skin. Malabsorption,Muscle pain. Depressivity. Joint pain. Extra bones in the cranium. Poorly functioning veins,Hypermobile Ehlers-Danlos syndrome,1. Collaborative Filtering
35,1,Blood in urine. Muscle pain. Fatigue. Picture: Angiokeratoma (small raised dark-red spot). Corneal opacity. Joint pain,Anemia. Picture: Subcutaneous nodule (skin lesion). Spider veins inside the mouth or conjunctiva or gastrointestinal tract or inner nose or trachoebronchial system. Picture: Conjunctival telangiectasia. Nausea and vomiting. Arthritis,Bundle branch block. Optic atrophy. Reduced bone mineral density. Renal insufficiency. Mitral regurgitation,Fabry disease,3. Google Custom
35,2,Feeding difficulties in infancy. Abnormal bone structure. Misalignment of the eyes. Joint stiffness. Limited eye movements. Joint dislocation. Difficulty swallowing,Joint pain. Fatigue. Depressivity. Breathing difficulties. Developmental regression. Generalized myoclonic seizures. Bilateral tonic-clonic seizure,Osteopenia: Decreased bone density. Enlarged liver. Retinopathy. Cherry red spot of the macula. Increased antibody level in blood. Englarged spleen,Gaucher disease,2. Malady Help
36,0,Foot deformity. Sleep disturbance. Joint hyperflexibility. Menstrual abnormalities (frequency heaviness irregularity),Stretchy skin. Persistent blue hands/feet. Inguinal hernia. Vertigo,Scoliosis. Nausea and vomiting. Migraine. Keratoconus,Hypermobile Ehlers-Danlos syndrome,1. Collaborative Filtering
36,1,Mini-stroke. Chest pain. Lack of sweating. Thickened skin. Cognitive impairment,Breathing difficulties. Picture: Subcutaneous nodule (skin lesion). Congestive heart failure. Elevated or lowered cholesteral. Mitral regurgitation,Corneal dystrophy. High urine protein levels. Nephrotic syndrome. Abnormality of femur morphology,Fabry disease,3. Google Custom
36,2,Misalignment of the eyes. Feeding difficulties in infancy. Involuntary movements. Anemia. Fatigue. Bone pain,Recurrent fractures. Changes in coordination and speed of movements. Developmental regression. Abdominal pain. Englarged spleen,Abnormality of the skeletal system. Replacement of normal lung tissues by fibroblasts and collagen. Calcium deposits in the aortic valve. Low platelet count. Abnormal heart valve morphology,Gaucher disease,2. Malady Help
37,0,Foot deformity. Sleep disturbance. Persistent blue hands/feet. Malabsorption. Vertigo. Joint hyperflexibility,Soft skin. Frequent joint dislocation. Scoliosis. Nausea and vomiting. Fatigue. Abnormal anus or rectum,Stretchy skin. Osteoarthritis. Acid reflux. Extra bones in the cranium. Gastrointestinal dysmotility,Hypermobile Ehlers-Danlos syndrome,1. Collaborative Filtering
37,1,Anorexia. Picture: Subcutaneous nodule (skin lesion). Hearing impairment. Arthritis. Joint pain. Mini-stroke,Thickened skin. Breathing difficulties. Fatigue. Muscle pain. Spider veins,High blood pressure. Bundle branch block. Abnormal myocardium morphology. Abnormal aortic valve morphology. Corneal dystrophy,Fabry disease,3. Google Custom
37,2,Abnormal bone structure. Delayed puberty. Difficulty swallowing. Recurrent fractures. Changes in coordination and speed of movements,Osteoarthritis. Abnormal skin pigmentation. Replacement of normal lung tissues by fibroblasts and collagen. Abnormality of the skeletal system,Enlarged liver. Abnormal heart valve morphology. Low platelet count. Abnormal macular morphology,Gaucher disease,2. Malady Help
38,0,Sleep disturbance. Flat feet. Constipation. Nausea and vomiting,Dry eyes. Abnormal anus or rectum. Joint pain. Fatigue,Muscle pain. Vertigo. Separation of layers of an artery,Hypermobile Ehlers-Danlos syndrome,1. Collaborative Filtering
38,1,Behavioral abnormality. Corneal opacity. Arthritis. Hearing impairment. Fatigue. Congestive heart failure,Muscle pain. Blurred vision. Increased urine output. Abdominal pain. Anxiety. Picture: Subcutaneous nodule (skin lesion),Arrhythmia. Elevated or lowered cholesteral. High urine protein levels. Abnormal aortic valve morphology. Malabsorption. Bundle branch block,Fabry disease,3. Google Custom
38,2,Feeding difficulties in infancy. Abnormal bone structure. Fever. Developmental regression. Joint dislocation. Fatigue,Tremor. Abdominal pain. Bone pain. Calcium deposits in the mitral valve. Englarged spleen,Abnormality of the skeletal system. Bone death due to lack of blood supply. Enlarged liver. Abnormal myocardium morphology. Cherry red spot of the macula,Gaucher disease,2. Malady Help
39,0,Foot deformity. Small teeth. Prominent eye folds. Joint hyperflexibility. Fatigue,Frequent joint dislocation. Soft skin. Muscle pain. Depressivity,Osteoarthritis. Joint pain. Malabsorption. Extra bones in the cranium,Hypermobile Ehlers-Danlos syndrome,3. Google Custom
39,1,Spider veins. Thickened skin. Seizure. Corneal opacity. Abdominal pain,Blood in urine. Lack of sweating. Chest pain. Joint pain. Malabsorption,Hypertrophic cardiomyopathy. Abnormality of femur morphology. Renal insufficiency. Abnormal renal tubule morphology. Reduced bone mineral density,Fabry disease,1. Collaborative Filtering
39,2,Arthrogryposis multiplex congenita (bent joints that cannot be straightened). Delayed puberty. Developmental regression. Blood in urine. Difficulty with horizontal voluntary eye movements. Paralysis or weakness of one side of the body,Joint pain. Fever. Anemia. Bilateral tonic-clonic seizure. Ataxia. Generalized myoclonic seizures,Abnormal heart valve morphology. Abnormal myocardium morphology. Bone death due to lack of blood supply. Abnormal macular morphology. Abnormality of the skeletal system,Gaucher disease,2. Malady Help
40,0,Sleep disturbance. Foot deformity. Fatigue. Muscle pain. Malabsorption,Vertigo. Stretchy skin. Depressivity. Osteoarthritis,Arrhythmia. Limitation of joint mobility. Joint hyperflexibility. Widening of main artery,Hypermobile Ehlers-Danlos syndrome,1. Collaborative Filtering
40,1,Picture: coarse facial features. Thickened skin. Abdominal pain. Picture: Angiokeratoma (small raised dark-red spot). Joint pain,Nausea and vomiting. Arrhythmia. Corneal opacity. Mini-stroke. Abnormality of the endocardium,Kidney damage/Kidney disease. Nephrotic syndrome. Glomerulopathy (diseased blood vessels in the kidneys). Renal insufficiency,Fabry disease,2. Malady Help
40,2,Delayed skeletal maturation. Arthrogryposis multiplex congenita (bent joints that cannot be straightened). Recurrent fractures. Joint stiffness,Developmental regression. Fatigue. Fever. Englarged spleen,Bone death due to lack of blood supply. Hepatitis. Increased bone mineral density. Interstitial pulmonary abnormality,Gaucher disease,3. Google Custom
41,0,Small teeth. Abnormal palate (roof of the mouth). Fatigue. Osteoarthritis. Joint hyperflexibility,Frequent joint dislocation. Vertigo. Stretchy skin. Migraine. Tingling/pins and needles,Constipation. Depressivity. Breathing stops (episodes). Absent/small abdominal wall muscles. Extra bones in the cranium,Hypermobile Ehlers-Danlos syndrome,1. Collaborative Filtering
41,1,Muscle pain. Cognitive impairment. Joint pain. Arthritis. Corneal opacity,Congestive heart failure. Thickened skin. Fatigue. Picture: Angiokeratoma (small raised dark-red spot). Renal insufficiency,Corneal dystrophy. Left ventricular hypertrophy. Cataract. Emphysema,Fabry disease,3. Google Custom
41,2,Feeding difficulties in infancy. Anemia. Difficulty swallowing. Joint stiffness. Bone pain,Fever. Abdominal pain. Bilateral tonic-clonic seizure. Calcium deposits in the aortic valve,Enlarged liver. Ataxia. Hepatitis. Abnormality of the skeletal system,Gaucher disease,2. Malady Help
42,0,Flat feet. Abnormality of the wrist. Vertigo. Tendon rupture. Joint hyperflexibility,Thin skin. Persistent blue hands/feet. Soft skin. Stretchy skin,Muscle pain. Inflamed gums. Breathing stops (episodes). Osteolysis: Breakdown of bone,Hypermobile Ehlers-Danlos syndrome,1. Collaborative Filtering
42,1,Picture: thick lower lip. Nausea and vomiting. Fatigue. Spider veins inside the mouth or conjunctiva or gastrointestinal tract or inner nose or trachoebronchial system. Chest pain. Congestive heart failure,Progressive airflow obstruction. Joint pain. Mini-stroke. Picture: Angiokeratoma (small raised dark-red spot). Thickened skin. Developmental regression,Abdominal pain. High urine protein levels. Renal insufficiency. Cataract. Emphysema. Nephrotic syndrome,Fabry disease,3. Google Custom
42,2,Abnormal bone structure. Misalignment of the eyes. Changes in coordination and speed of movements. Susceptable to bleeding. Difficulty swallowing,Anemia. Joint dislocation. Joint pain. Low blood cell count,Enlarged liver. Increased antibody level in blood. Calcium deposits in the aortic valve. Englarged spleen,Gaucher disease,2. Malady Help
43,0,Flat feet. Foot deformity. Stretchy skin. Constipation. Malabsorption. Persistent blue hands/feet,Frequent joint dislocation. Scoliosis. Depressivity. Joint pain. Thin skin,Inflamed gums. Muscle pain. Soft skin. Extra bones in the cranium. Widening of main artery,Hypermobile Ehlers-Danlos syndrome,1. Collaborative Filtering
43,1,Delayed puberty. Corneal opacity. Congestive heart failure. Nausea and vomiting. Abdominal pain,Picture: Subcutaneous nodule (skin lesion). Picture: Conjunctival telangiectasia. Fever. Mini-stroke. Elevated or lowered cholesteral,Emphysema. Optic atrophy. Sensorineural hearing impairment. Atrioventricular block,Fabry disease,3. Google Custom
43,2,Misalignment of the eyes. Delayed skeletal maturation. Abdominal pain. Fatigue. Difficulty with horizontal voluntary eye movements,Fever. Bleeding gums. Joint dislocation. Anemia. Enlarged liver,Osteolysis: Breakdown of bone. Hydrocephalus (too much cerebrospinal fluid in the brain). Pulmonary arterial hypertension: High blood pressure in lungs. Generalized myoclonic seizures,Gaucher disease,2. Malady Help
44,0,Flat feet. Prominent eye folds. Foot deformity. Arrhythmia. Fatigue,Menstrual abnormalities (frequency heaviness irregularity). Migraine. Thin skin. Bladder hernia. Muscle pain,Abnormal anus or rectum. Nausea and vomiting. Constipation. Extra bones in the cranium,Hypermobile Ehlers-Danlos syndrome,3. Google Custom
44,1,Corneal opacity. Anemia. Blurred vision. Arthritis. Joint pain,Picture: Subcutaneous nodule (skin lesion). Hearing impairment. Fatigue. Malabsorption,Abnormal renal tubule morphology. Abnormal aortic valve morphology. Corneal dystrophy. High urine protein levels,Fabry disease,1. Collaborative Filtering
44,2,Misalignment of the eyes. Feeding difficulties in infancy. Fatigue. Anemia. Depressivity,Osteoarthritis. Bone pain. Joint pain. Tremor. Ataxia,Abnormal pericardium morphology. Bone death due to lack of blood supply. Abnormality of the skeletal system. Bilateral tonic-clonic seizure,Gaucher disease,2. Malady Help
45,0,Sleep disturbance. Foot deformity. Prominent eye folds. Persistent blue hands/feet. Unusual scars,Tendon rupture. Fatigue. Constipation. Joint pain,Frequent joint dislocation. Inflamed gums. Genital hernia. Osteolysis: Breakdown of bone,Hypermobile Ehlers-Danlos syndrome,1. Collaborative Filtering
45,1,Picture: coarse facial features. Behavioral abnormality. Picture: Conjunctival telangiectasia. Corneal opacity. Fever. Joint pain,Muscle pain. Hearing impairment. Congestive heart failure. Thickened skin. Fatigue. Optic atrophy,Cataract. High urine protein levels. Emphysema. Nephrotic syndrome. Left ventricular hypertrophy,Fabry disease,2. Malady Help
45,2,Abnormal bone structure. Feeding difficulties in infancy. Misalignment of the eyes. Recurrent fractures. Changes in coordination and speed of movements. Joint dislocation,Fatigue. Abdominal pain. Abnormal skin pigmentation. Joint pain. Generalized myoclonic seizures. Abnormality of the skeletal system,Enlarged liver. Abnormal macular morphology. Englarged spleen. Calcium deposits in the mitral valve. Retinopathy. Bone infection,Gaucher disease,3. Google Custom
46,0,Prominent eye folds. Drooping upper eyelid. Small teeth. Muscle pain. Malabsorption,Vertigo. Joint hyperflexibility. Frequent joint dislocation. Decreased fertility. Persistent blue hands/feet,Soft skin. Tingling/pins and needles. Inguinal hernia. Extra bones in the cranium,Hypermobile Ehlers-Danlos syndrome,3. Google Custom
46,1,Picture: coarse facial features. Joint pain. Anemia. Behavioral abnormality. Fever,Blood in urine. Hearing impairment. Cognitive impairment. Lack of sweating. Mitral regurgitation,Bundle branch block. Abnormal aortic valve morphology. Cataract. Sensorineural hearing impairment,Fabry disease,1. Collaborative Filtering
46,2,Misalignment of the eyes. Fatigue. Depressivity. Blood in urine,Changes in coordination and speed of movements. Joint stiffness. Generalized myoclonic seizures. Abnormality of the skeletal system,Increased antibody level in blood. Calcium deposits in the aortic valve. Elevated C-reactive protein level,Gaucher disease,2. Malady Help
47,0,Sleep disturbance. Drooping upper eyelid. Nausea and vomiting. Persistent blue hands/feet. Migraine,Muscle pain. Dry eyes. Stretchy skin. Joint hyperflexibility. Vertigo,Frequent joint dislocation. Depressivity. Unusual scars. Absent/small abdominal wall muscles,Hypermobile Ehlers-Danlos syndrome,3. Google Custom
47,1,Thickened skin. Congestive heart failure. Arthritis. Hearing impairment,Spider veins. Joint pain. Blood in urine. Breathing difficulties,Left ventricular hypertrophy. Nephrotic syndrome. Abnormal renal tubule morphology,Fabry disease,2. Malady Help
47,2,Delayed skeletal maturation. Hydrops fetalis: prenatal swelling. Difficulty swallowing. Depressivity. Bone pain,Changes in coordination and speed of movements. Hearing impairment. Fatigue. Anemia. Developmental regression,Osteolysis: Breakdown of bone. Pulmonary arterial hypertension: High blood pressure in lungs. Bilateral tonic-clonic seizure. Ataxia. Abnormal heart valve morphology,Gaucher disease,1. Collaborative Filtering
48,0,Sleep disturbance. Flat feet. Foot deformity. Breathing stops (episodes). Frequent joint dislocation. Soft skin. Vertigo,Inflamed gums. Acid reflux. Muscle pain. Arrhythmia. Osteoarthritis. Menstrual abnormalities (frequency heaviness irregularity),Unusual scars. Limitation of joint mobility. Thin skin. Malabsorption. Extra bones in the cranium. Decreased nerve conduction velocity,Hypermobile Ehlers-Danlos syndrome,3. Google Custom
48,1,Joint pain. Breathing difficulties. Lack of sweating. Thickened skin,Arthritis. Picture: Angiokeratoma (small raised dark-red spot). Picture: Subcutaneous nodule (skin lesion),Nephrotic syndrome. Renal insufficiency. Mitral regurgitation,Fabry disease,2. Malady Help
48,2,Delayed skeletal maturation. Feeding difficulties in infancy. Anemia. Fatigue. Joint pain. Recurrent fractures,Dry scales on the skin. Hearing impairment. Joint dislocation. Enlarged liver. Low platelet count. Bone death due to lack of blood supply,Abnormal heart valve morphology. Abnormality of the skeletal system. Ataxia. Englarged spleen. Hydrocephalus (too much cerebrospinal fluid in the brain),Gaucher disease,1. Collaborative Filtering
49,0,Small teeth. Sleep disturbance. Thin skin. Osteoarthritis,Joint hyperflexibility. Tendon rupture. Abnormal anus or rectum. Persistent blue hands/feet,Stretchy skin. Frequent joint dislocation. Muscle pain. Extra bones in the cranium,Hypermobile Ehlers-Danlos syndrome,3. Google Custom
49,1,Picture: coarse facial features. Fever. Blood in urine. Arthritis. Thickened skin,Anemia. Spider veins. Chest pain. Progressive airflow obstruction. Abdominal pain,Elevated or lowered cholesteral. Malabsorption. Nephrotic syndrome. Hypertrophic cardiomyopathy. Cataract,Fabry disease,2. Malady Help
49,2,Delayed skeletal maturation. Abdominal pain. Dry scales on the skin. Tremor. Osteoarthritis,Recurrent fractures. Anemia. Bone pain. Scarring of liver caused by chronic liver disease. Low platelet count,Hepatitis. Generalized myoclonic seizures. Osteopenia: Decreased bone density. Interstitial pulmonary abnormality,Gaucher disease,1. Collaborative Filtering
50,0,Gum enlargement. Sleep disturbance. Muscle pain. Fatigue,Vertigo. Inflamed gums. Unusual scars. Migraine,Stretchy skin. Joint pain. Thin skin. Extra bones in the cranium,Hypermobile Ehlers-Danlos syndrome,2. Malady Help
50,1,Hearing impairment. Extreme thirst. Congestive heart failure. Anemia,Behavioral abnormality. Lack of sweating. Muscle pain. Joint pain,Abnormal myocardium morphology. Abnormality of femur morphology. Bundle branch block. Cataract,Fabry disease,1. Collaborative Filtering
50,2,Delayed puberty. Abnormal bone structure. Limited eye movements. Depressivity. Fever. Difficulty swallowing. Bone pain,Joint dislocation. Joint pain. Recurrent fractures. Abnormal skin pigmentation. Bilateral tonic-clonic seizure. Enlarged liver,Calcium deposits in the aortic valve. Enlarged ventricular system of the brain. Ataxia. Englarged spleen. Low platelet count. Interstitial pulmonary abnormality,Gaucher disease,3. Google Custom
51,0,Sleep disturbance. Flat feet. Decreased fertility. Muscle pain,Dry eyes. Osteoarthritis. Malabsorption. Vertigo,Frequent joint dislocation. Inflamed gums. Unusual scars. Decreased nerve conduction velocity,Hypermobile Ehlers-Danlos syndrome,3. Google Custom
51,1,Delayed puberty. Anorexia. Thickened skin. Picture: Conjunctival telangiectasia. Picture: Angiokeratoma (small raised dark-red spot),Corneal opacity. Mini-stroke. Anemia. Arthritis. Abnormal aortic valve morphology,Elevated or lowered cholesteral. Malabsorption. Nephrotic syndrome. Left ventricular hypertrophy,Fabry disease,1. Collaborative Filtering
51,2,Arthrogryposis multiplex congenita (bent joints that cannot be straightened). Short stature. Fatigue. Developmental regression. Joint pain. Osteoarthritis,Susceptable to bleeding. Abdominal pain. Joint stiffness. Difficulty swallowing. Scarring of liver caused by chronic liver disease,Bone death due to lack of blood supply. Generalized myoclonic seizures. Enlarged liver. Bilateral tonic-clonic seizure. Abnormality of the skeletal system,Gaucher disease,2. Malady Help
52,0,Sleep disturbance. Drooping upper eyelid. Abnormality of the wrist. Frequent joint dislocation. Fatigue. Joint pain,Breathing stops (episodes). Persistent blue hands/feet. Constipation. Unusual scars. Joint hyperflexibility. Umbilical hernia,Inflamed gums. Arrhythmia. Thin skin. Osteolysis: Breakdown of bone. Extra bones in the cranium,Hypermobile Ehlers-Danlos syndrome,2. Malady Help
52,1,Muscle pain. Spider veins. Corneal opacity. Fatigue. Mini-stroke,Persistent swelling in arm/leg. Hearing impairment. Joint pain. Picture: Conjunctival telangiectasia. Congestive heart failure,Corneal dystrophy. Nephrotic syndrome. Hypertrophic cardiomyopathy. Atrioventricular block. Achalasia,Fabry disease,3. Google Custom
52,2,Feeding difficulties in infancy. Blood in urine. Hearing impairment. Fever. Fatigue,Anemia. Tremor. Englarged spleen. Bone death due to lack of blood supply. Osteopenia: Decreased bone density,Pulmonary arterial hypertension: High blood pressure in lungs. Interstitial pulmonary abnormality. Enlarged liver. Bilateral tonic-clonic seizure,Gaucher disease,1. Collaborative Filtering
53,0,Flat feet. Foot deformity. Picture: Subcutaneous nodule (skin lesion). Joint hyperflexibility. Stretchy skin,Osteoarthritis. Muscle pain. Soft skin. Frequent joint dislocation. Inguinal hernia,Fatigue. Migraine. Nausea and vomiting. Gastrointestinal dysmotility,Hypermobile Ehlers-Danlos syndrome,2. Malady Help
53,1,Picture: thick lower lip. Picture: Angiokeratoma (small raised dark-red spot). Picture: Conjunctival telangiectasia. Developmental regression. Anemia,Lack of sweating. Vertigo. Arthritis. Chest pain. Congestive heart failure,High urine protein levels. Abnormal renal tubule morphology. Abnormality of the endocardium. Abnormal aortic valve morphology,Fabry disease,3. Google Custom
53,2,Feeding difficulties in infancy. Fever. Abdominal pain. Bone pain,Developmental regression. Breathing difficulties. Joint stiffness. Enlarged liver,Bilateral tonic-clonic seizure. Hydrocephalus (too much cerebrospinal fluid in the brain). Hepatitis. Abnormal heart valve morphology,Gaucher disease,1. Collaborative Filtering
54,0,Sleep disturbance. Drooping upper eyelid. Menstrual abnormalities (frequency heaviness irregularity). Vertigo. Frequent joint dislocation,Joint pain. Nausea and vomiting. Abnormal anus or rectum. Genital hernia. Depressivity,Joint hyperflexibility. Muscle pain. Persistent blue hands/feet. Arrhythmia. Extra bones in the cranium,Hypermobile Ehlers-Danlos syndrome,2. Malady Help
54,1,Picture: thick lower lip. Muscle pain. Persistent swelling in arm/leg. Picture: Conjunctival telangiectasia. Spider veins inside the mouth or conjunctiva or gastrointestinal tract or inner nose or trachoebronchial system,Lack of sweating. Fatigue. Picture: Subcutaneous nodule (skin lesion). Vision loss. Fever,Behavioral abnormality. Glomerulopathy (diseased blood vessels in the kidneys). Corneal dystrophy. Elevated or lowered cholesteral,Fabry disease,3. Google Custom
54,2,Short stature. Delayed puberty. Susceptable to bleeding. Developmental regression. Abnormal skin pigmentation,Fatigue. Fever. Anemia. Cranial nerve paralysis,Abnormality of the skeletal system. Generalized myoclonic seizures. Enlarged liver. Low platelet count,Gaucher disease,1. Collaborative Filtering
55,0,Abnormality of the wrist. Sleep disturbance. Foot deformity. Joint hyperflexibility. Nausea and vomiting. Frequent joint dislocation,Osteoarthritis. Joint pain. Vertigo. Arrhythmia. Soft skin. Migraine,Muscle pain. Depressivity. Stretchy skin. Thin skin. Constipation. Keratoconus,Hypermobile Ehlers-Danlos syndrome,2. Malady Help
55,1,Mini-stroke. Blood in urine. Spider veins. Breathing difficulties. Behavioral abnormality,Corneal opacity. Extreme thirst. Picture: Conjunctival telangiectasia. Joint pain,Cataract. Renal insufficiency. Malabsorption. Kidney damage/Kidney disease,Fabry disease,3. Google Custom
55,2,Abnormal bone structure. Anemia. Changes in coordination and speed of movements. Recurrent fractures,Bone pain. Dry scales on the skin. Bilateral tonic-clonic seizure. Low platelet count,Bone death due to lack of blood supply. Pulmonary arterial hypertension: High blood pressure in lungs. Osteopenia: Decreased bone density. Enlarged liver,Gaucher disease,1. Collaborative Filtering
56,0,Gum enlargement. Sleep disturbance. Stretchy skin. Persistent blue hands/feet. Breathing stops (episodes),Soft skin. Thin skin. Acid reflux. Joint hyperflexibility. Abnormal anus or rectum,Joint pain. Nausea and vomiting. Vertigo. Extra bones in the cranium. Decreased nerve conduction velocity,Hypermobile Ehlers-Danlos syndrome,3. Google Custom
56,1,Blood in urine. Thickened skin. Arthritis. Mini-stroke. Picture: Subcutaneous nodule (skin lesion),Congestive heart failure. Joint pain. Spider veins. Mitral regurgitation,Malabsorption. Renal insufficiency. High urine protein levels. Corneal dystrophy,Fabry disease,2. Malady Help
56,2,Delayed puberty. Abnormal bone structure. Decreased muscle tone. Abdominal pain. Joint dislocation. Anemia. Blood in urine,Developmental regression. Tremor. Bleeding gums. Joint pain. Fever. Osteopenia: Decreased bone density,Retinopathy. Enlarged liver. Replacement of normal lung tissues by fibroblasts and collagen. Ataxia. Bone death due to lack of blood supply. Generalized myoclonic seizures,Gaucher disease,1. Collaborative Filtering
57,0,Dental abnormalities. Sleep disturbance. Joint pain. Malabsorption. Frequent joint dislocation,Bladder hernia. Arrhythmia. Thin skin. Nausea and vomiting,Osteoarthritis. Menstrual abnormalities (frequency heaviness irregularity). Tendon rupture. Absent/small abdominal wall muscles,Hypermobile Ehlers-Danlos syndrome,3. Google Custom
57,1,Spider veins. Picture: Angiokeratoma (small raised dark-red spot). Vision loss. Picture: Subcutaneous nodule (skin lesion). Mini-stroke,Behavioral abnormality. Lack of sweating. Fatigue. Arthritis. Corneal dystrophy,Atrioventricular block. Nephrotic syndrome. High urine protein levels. Optic atrophy,Fabry disease,2. Malady Help
57,2,Feeding difficulties in infancy. Abnormal bone structure. Difficulty swallowing. Recurrent fractures. Bone pain,Difficulty with horizontal voluntary eye movements. Developmental regression. Fatigue. Bilateral tonic-clonic seizure. High urine protein levels,Generalized myoclonic seizures. Calcium deposits in the mitral valve. Englarged spleen. Abnormality of the skeletal system,Gaucher disease,1. Collaborative Filtering
58,0,Sleep disturbance. Dental abnormalities. Fatigue. Joint pain. Vertigo,Osteoarthritis. Inguinal hernia. Frequent joint dislocation. Inflamed gums,Constipation. Muscle pain. Picture: Subcutaneous nodule (skin lesion). Extra bones in the cranium,Hypermobile Ehlers-Danlos syndrome,2. Malady Help
58,1,Picture: thick lower lip. Joint pain. Fatigue. Picture: Conjunctival telangiectasia. Arthritis. Corneal opacity,Lack of sweating. Blood in urine. Arrhythmia. Spider veins inside the mouth or conjunctiva or gastrointestinal tract or inner nose or trachoebronchial system. Abdominal pain,Emphysema. Abnormal aortic valve morphology. High urine protein levels. Abnormality of femur morphology. Renal insufficiency,Fabry disease,1. Collaborative Filtering
58,2,Abnormal bone structure. Feeding difficulties in infancy. Recurrent fractures. Difficulty swallowing. Osteoarthritis. Joint pain,Fever. Blood in urine. Abdominal pain. Susceptable to bleeding. Joint dislocation. Low platelet count,Abnormal heart valve morphology. Enlarged liver. Elevated C-reactive protein level. Calcium deposits in the aortic valve. Generalized myoclonic seizures. Englarged spleen,Gaucher disease,3. Google Custom
59,0,Gum abnormalities. Sleep disturbance. Dental abnormalities. Thin skin. Stretchy skin. Malabsorption,Frequent joint dislocation. Vertigo. Soft skin. Breathing stops (episodes). Joint hyperflexibility. Muscle pain,Osteoarthritis. Tendon rupture. Persistent blue hands/feet. Fatigue. Arrhythmia. Extra bones in the cranium,Hypermobile Ehlers-Danlos syndrome,2. Malady Help
59,1,Picture: thick lower lip. Picture: Conjunctival telangiectasia. Mini-stroke. Spider veins. Corneal opacity. Nausea and vomiting. Chest pain,Arthritis. Arrhythmia. Joint pain. Behavioral abnormality. Lack of sweating. Blurred vision,Congestive heart failure. Achalasia. Abnormal renal tubule morphology. Mitral regurgitation. Sensorineural hearing impairment. Malabsorption,Fabry disease,1. Collaborative Filtering
59,2,Abnormal bone structure. Feeding difficulties in infancy. Short stature. Paralysis or weakness of one side of the body. Anemia. Difficulty swallowing,Joint dislocation. Developmental regression. Susceptable to bleeding. Fatigue. Ataxia. Osteolysis: Breakdown of bone,Hepatitis. Enlarged liver. Englarged spleen. Calcium deposits in the mitral valve. Abnormality of the skeletal system,Gaucher disease,3. Google Custom
60,0,Gum enlargement. Sleep disturbance. Nausea and vomiting. Menstrual abnormalities (frequency heaviness irregularity),Frequent joint dislocation. Migraine. Acid reflux. Muscle pain,Joint hyperflexibility. Depressivity. Fatigue. Gastrointestinal dysmotility,Hypermobile Ehlers-Danlos syndrome,2. Malady Help
60,1,Delayed puberty. Breathing difficulties. Anorexia. Blood in urine. Nausea and vomiting. Joint pain,Blurred vision. Picture: Subcutaneous nodule (skin lesion). Lack of sweating. Congestive heart failure. Hearing impairment. Renal insufficiency,Malabsorption. Cataract. Optic atrophy. Mitral regurgitation. Diabetes insipidus,Fabry disease,1. Collaborative Filtering
60,2,Misalignment of the eyes. Delayed skeletal maturation. Abdominal pain. Changes in coordination and speed of movements. Susceptable to bleeding,Recurrent fractures. Fatigue. Difficulty with horizontal voluntary eye movements. Ataxia. Calcium deposits in the aortic valve,Scarring of liver caused by chronic liver disease. Bone death due to lack of blood supply. Abnormal heart valve morphology. Englarged spleen,Gaucher disease,3. Google Custom
61,0,Abnormal palate (roof of the mouth). Gum enlargement. Flat feet. Vertigo. Thin skin. Stretchy skin. Osteoarthritis,Joint hyperflexibility. Migraine. Malabsorption. Soft skin. Arrhythmia. Tendon rupture. Depressivity,Fatigue. Unusual scars. Inflamed gums. Joint pain. Poorly functioning veins. Keratoconus,Hypermobile Ehlers-Danlos syndrome,2. Malady Help
61,1,Delayed puberty. Anorexia. Breathing difficulties. Vision loss. Muscle pain. Fatigue,Picture: Angiokeratoma (small raised dark-red spot). Abdominal pain. Picture: Subcutaneous nodule (skin lesion). Congestive heart failure. Lack of sweating,Malabsorption. Nephrotic syndrome. Reduced bone mineral density. Atrioventricular block. Cataract,Fabry disease,3. Google Custom
61,2,Abnormal bone structure. Developmental regression. Joint dislocation. Corneal opacity. Dry scales on the skin,Difficulty swallowing. Tremor. Anemia. High urine protein levels,Hepatitis. Enlarged ventricular system of the brain. Cranial nerve paralysis. Low platelet count,Gaucher disease,1. Collaborative Filtering
62,0,Drooping upper eyelid. Foot deformity. Flat feet. Depressivity. Fatigue,Osteoarthritis. Constipation. Vertigo. Migraine. Stretchy skin,Joint pain. Muscle pain. Frequent joint dislocation. Joint hyperflexibility. Keratoconus,Hypermobile Ehlers-Danlos syndrome,3. Google Custom
62,1,Nausea and vomiting. Arthritis. Extreme thirst. Corneal opacity,Anxiety. Persistent swelling in arm/leg. Picture: Subcutaneous nodule (skin lesion). Abdominal pain,Corneal dystrophy. Nephrotic syndrome. Emphysema. Renal insufficiency,Fabry disease,2. Malady Help
62,2,Misalignment of the eyes. Hydrops fetalis: prenatal swelling. Anemia. Developmental regression. Difficulty swallowing,Fever. Joint pain. Changes in coordination and speed of movements. Enlarged ventricular system of the brain,Increased antibody level in blood. Cherry red spot of the macula. Calcium deposits in the mitral valve. Englarged spleen,Gaucher disease,1. Collaborative Filtering
63,0,Prominent eye folds. Flat feet. Foot deformity. Nausea and vomiting. Constipation. Muscle pain,Depressivity. Stretchy skin. Genital hernia. Malabsorption. Fatigue. Picture: Subcutaneous nodule (skin lesion),Abnormal anus or rectum. Vertigo. Frequent joint dislocation. Scoliosis. Poorly functioning veins. Decreased nerve conduction velocity,Hypermobile Ehlers-Danlos syndrome,1. Collaborative Filtering
63,1,Picture: thick lower lip. Vision loss. Lack of sweating. Fever. Spider veins inside the mouth or conjunctiva or gastrointestinal tract or inner nose or trachoebronchial system,Cognitive impairment. Hearing impairment. Anemia. Picture: Angiokeratoma (small raised dark-red spot),Mitral regurgitation. Nephrotic syndrome. Achalasia. Abnormal aortic valve morphology,Fabry disease,2. Malady Help
63,2,Delayed puberty. Misalignment of the eyes. Dry scales on the skin. Bone pain. Fatigue. Decreased muscle tone,Fever. Difficulty swallowing. Anemia. Joint pain. Englarged spleen. Abnormality of the skeletal system,Osteopenia: Decreased bone density. Replacement of normal lung tissues by fibroblasts and collagen. Calcium deposits in the aortic valve. Ataxia. Enlarged liver,Gaucher disease,3. Google Custom
64,0,Drooping upper eyelid. Foot deformity. Sleep disturbance. Small teeth. Osteoarthritis. Frequent joint dislocation. Joint hyperflexibility. Abnormal anus or rectum,Umbilical hernia. Muscle pain. Vertigo. Arrhythmia. Thin skin. Depressivity. Joint pain,Constipation. Decreased fertility. Limitation of joint mobility. Scoliosis. Fatigue. Decreased nerve conduction velocity. Widening of main artery,Hypermobile Ehlers-Danlos syndrome,3. Google Custom
64,1,Breathing difficulties. Nausea and vomiting. Spider veins inside the mouth or conjunctiva or gastrointestinal tract or inner nose or trachoebronchial system. Extreme thirst. Blood in urine,Corneal opacity. Anemia. Cognitive impairment. Muscle pain. Elevated or lowered cholesteral,Optic atrophy. Corneal dystrophy. Emphysema. Nephrotic syndrome,Fabry disease,2. Malady Help
64,2,Abnormal bone structure. Feeding difficulties in infancy. Abdominal pain. Decreased muscle tone. Difficulty with horizontal voluntary eye movements,Difficulty swallowing. Fever. Double vision. Joint pain. Abnormality of the skeletal system,Osteopenia: Decreased bone density. Bone death due to lack of blood supply. Englarged spleen. Osteolysis: Breakdown of bone,Gaucher disease,1. Collaborative Filtering
65,0,Sleep disturbance. Abnormal palate (roof of the mouth). Joint pain. Fatigue. Depressivity,Genital hernia. Joint hyperflexibility. Inflamed gums. Thin skin. Stretchy skin,Arrhythmia. Limitation of joint mobility. Malabsorption. Extra bones in the cranium,Hypermobile Ehlers-Danlos syndrome,2. Malady Help
65,1,Lack of sweating. Fatigue. Breathing difficulties. Abdominal pain. Arthritis. Cognitive impairment,Hearing impairment. Mini-stroke. Fever. Thickened skin. Nephrotic syndrome,Abnormal renal tubule morphology. Kidney damage/Kidney disease. Renal insufficiency. Abnormal aortic valve morphology. Optic atrophy,Fabry disease,1. Collaborative Filtering
65,2,Hydrops fetalis: prenatal swelling. Delayed skeletal maturation. Difficulty swallowing. Changes in coordination and speed of movements. Fatigue. Depressivity,Developmental regression. Abdominal pain. Bone death due to lack of blood supply. Low platelet count. Generalized myoclonic seizures,Abnormal heart valve morphology. Abnormal myocardium morphology. Osteopenia: Decreased bone density. Englarged spleen. Increased antibody level in blood,Gaucher disease,3. Google Custom
66,0,Gum enlargement. Sleep disturbance. Picture: Subcutaneous nodule (skin lesion). Thin skin. Migraine. Persistent blue hands/feet,Depressivity. Joint pain. Inguinal hernia. Stretchy skin. Frequent joint dislocation. Joint hyperflexibility,Fatigue. Muscle pain. Limitation of joint mobility. Poorly functioning veins. Extra bones in the cranium,Hypermobile Ehlers-Danlos syndrome,3. Google Custom
66,1,Mini-stroke. Behavioral abnormality. Abdominal pain. Corneal opacity. Fatigue. Fever,Breathing difficulties. Persistent swelling in arm/leg. Arthritis. Spider veins. Bundle branch block,Malabsorption. Atrioventricular block. Emphysema. Achalasia. Abnormal myocardium morphology,Fabry disease,1. Collaborative Filtering
66,2,Short stature. Delayed puberty. Difficulty swallowing. Anemia. Fever,Recurrent fractures. Bone pain. Developmental regression. Enlarged liver,Englarged spleen. Retinopathy. Scarring of liver caused by chronic liver disease. Hepatitis,Gaucher disease,2. Malady Help
67,0,Sleep disturbance. Flat feet. Gum enlargement. Constipation. Nausea and vomiting. Vertigo,Migraine. Picture: Subcutaneous nodule (skin lesion). Thin skin. Frequent joint dislocation. Fatigue. Acid reflux,Persistent blue hands/feet. Stretchy skin. Inflamed gums. Joint hyperflexibility. Poorly functioning veins. Extra bones in the cranium,Hypermobile Ehlers-Danlos syndrome,2. Malady Help
67,1,Fatigue. Spider veins inside the mouth or conjunctiva or gastrointestinal tract or inner nose or trachoebronchial system. Picture: Subcutaneous nodule (skin lesion). Cognitive impairment. Spider veins,Congestive heart failure. Hearing impairment. Muscle pain. Picture: Conjunctival telangiectasia. Joint pain,Nephrotic syndrome. High urine protein levels. Emphysema. Kidney damage/Kidney disease,Fabry disease,1. Collaborative Filtering
67,2,Delayed skeletal maturation. Arthrogryposis multiplex congenita (bent joints that cannot be straightened). Bone pain. Joint pain. Joint dislocation,Difficulty swallowing. Depressivity. Changes in coordination and speed of movements. Limited eye movements. Increased antibody level in blood,Cherry red spot of the macula. Hydrocephalus (too much cerebrospinal fluid in the brain). Enlarged ventricular system of the brain. Ataxia. Scarring of liver caused by chronic liver disease,Gaucher disease,3. Google Custom
68,0,Foot deformity. Inflamed gums. Thin skin. Joint pain,Depressivity. Muscle pain. Osteoarthritis,Persistent blue hands/feet. Fatigue. Keratoconus,Hypermobile Ehlers-Danlos syndrome,1. Collaborative Filtering
68,1,Delayed puberty. Blood in urine. Mini-stroke. Spider veins inside the mouth or conjunctiva or gastrointestinal tract or inner nose or trachoebronchial system. Fatigue. Anemia,Picture: Subcutaneous nodule (skin lesion). Behavioral abnormality. Anxiety. Breathing difficulties. Lack of sweating. Cataract,Mitral regurgitation. Left ventricular hypertrophy. Emphysema. Malabsorption. Renal insufficiency,Fabry disease,3. Google Custom
68,2,Feeding difficulties in infancy. Fever. Fatigue. Changes in coordination and speed of movements. Anemia,Bone pain. Involuntary movements. Difficulty swallowing. Enlarged liver,Abnormal myocardium morphology. Cherry red spot of the macula. Low platelet count. Englarged spleen,Gaucher disease,2. Malady Help
69,0,Gum abnormalities. Flat feet. Osteoarthritis. Migraine,Bladder hernia. Frequent joint dislocation. Breathing stops (episodes). Fatigue,Limitation of joint mobility. Depressivity. Absent/small abdominal wall muscles,Hypermobile Ehlers-Danlos syndrome,2. Malady Help
69,1,Short stature. Blood in urine. Congestive heart failure. Abdominal pain. Thickened skin. Picture: Conjunctival telangiectasia,Hearing impairment. Seizure. Spider veins. Muscle pain. Joint pain. Bundle branch block,Mitral regurgitation. Corneal dystrophy. Renal insufficiency. Sensorineural hearing impairment. Nephrotic syndrome,Fabry disease,3. Google Custom
69,2,Misalignment of the eyes. Arthrogryposis multiplex congenita (bent joints that cannot be straightened). Breathing difficulties. Fatigue. Corneal opacity. Joint pain,Changes in coordination and speed of movements. Paralysis or weakness of one side of the body. Depressivity. Joint stiffness. Elevated C-reactive protein level. High urine protein levels,Osteopenia: Decreased bone density. Pulmonary arterial hypertension: High blood pressure in lungs. Ataxia. Abnormal myocardium morphology. Enlarged liver. Bone death due to lack of blood supply,Gaucher disease,1. Collaborative Filtering
70,0,Flat feet. Sleep disturbance. Arrhythmia. Unusual scars. Tingling/pins and needles,Umbilical hernia. Muscle pain. Joint pain. Persistent blue hands/feet. Stretchy skin,Genital hernia. Constipation. Soft skin. Extra bones in the cranium,Hypermobile Ehlers-Danlos syndrome,3. Google Custom
70,1,Delayed puberty. Muscle pain. Joint pain. Congestive heart failure. Anemia. Nausea and vomiting,Corneal opacity. Fatigue. Fever. Anorexia. Blood in urine,Renal insufficiency. Cataract. Kidney damage/Kidney disease. Atrioventricular block. Sensorineural hearing impairment,Fabry disease,1. Collaborative Filtering
70,2,Delayed skeletal maturation. Misalignment of the eyes. Abdominal pain. Fever. Changes in coordination and speed of movements. Joint pain,Joint stiffness. Anemia. Fatigue. Bone pain. Pulmonary arterial hypertension: High blood pressure in lungs,Ataxia. Enlarged liver. Calcium deposits in the aortic valve. Bilateral tonic-clonic seizure. Calcium deposits in the mitral valve,Gaucher disease,2. Malady Help
71,0,Abnormal palate (roof of the mouth). Abnormality of the wrist. Foot deformity. Persistent blue hands/feet. Migraine. Muscle pain,Thin skin. Osteoarthritis. Joint pain. Stretchy skin. Frequent joint dislocation. Menstrual abnormalities (frequency heaviness irregularity),Soft skin. Abnormal anus or rectum. Constipation. Breathing stops (episodes). Decreased nerve conduction velocity,Hypermobile Ehlers-Danlos syndrome,2. Malady Help
71,1,Picture: thick lower lip. Mini-stroke. Behavioral abnormality. Seizure. Congestive heart failure. Joint pain. Arthritis,Muscle pain. Cognitive impairment. Lack of sweating. Developmental regression. Blood in urine. Corneal opacity,Hearing impairment. Malabsorption. Renal insufficiency. Corneal dystrophy. Nephrotic syndrome. Cataract,Fabry disease,1. Collaborative Filtering
71,2,Delayed puberty. Abnormal bone structure. Joint dislocation. Difficulty with horizontal voluntary eye movements. Difficulty swallowing,Breathing difficulties. Involuntary movements. Dry scales on the skin. High urine protein levels. Englarged spleen,Osteopenia: Decreased bone density. Bilateral tonic-clonic seizure. Bone death due to lack of blood supply. Abnormal heart valve morphology,Gaucher disease,3. Google Custom
72,0,Dental abnormalities. Foot deformity. Persistent blue hands/feet. Picture: Subcutaneous nodule (skin lesion),Soft skin. Frequent joint dislocation. Acid reflux. Menstrual abnormalities (frequency heaviness irregularity),Vertigo. Joint hyperflexibility. Widening of main artery,Hypermobile Ehlers-Danlos syndrome,2. Malady Help
72,1,Seizure. Fever. Cognitive impairment. Picture: Angiokeratoma (small raised dark-red spot),Anemia. Congestive heart failure. Muscle pain. Abnormal aortic valve morphology,Corneal dystrophy. Abnormality of the endocardium. Elevated or lowered cholesteral,Fabry disease,1. Collaborative Filtering
72,2,Feeding difficulties in infancy. Misalignment of the eyes. Fatigue. Bone pain. Anemia. Difficulty swallowing,Fever. Abdominal pain. Changes in coordination and speed of movements. Bilateral tonic-clonic seizure. Generalized myoclonic seizures,Bone death due to lack of blood supply. Low platelet count. Abnormality of the skeletal system. Enlarged liver. Replacement of normal lung tissues by fibroblasts and collagen,Gaucher disease,3. Google Custom
73,0,Sleep disturbance. Foot deformity. Scoliosis. Malabsorption. Persistent blue hands/feet,Breathing stops (episodes). Nausea and vomiting. Arrhythmia. Joint hyperflexibility. Thin skin,Vertigo. Tendon rupture. Absent/small abdominal wall muscles. Extra bones in the cranium,Hypermobile Ehlers-Danlos syndrome,1. Collaborative Filtering
73,1,Picture: coarse facial features. Abdominal pain. Nausea and vomiting. Spider veins. Anemia. Picture: Conjunctival telangiectasia,Hearing impairment. Joint pain. Developmental regression. Picture: Subcutaneous nodule (skin lesion). Spider veins inside the mouth or conjunctiva or gastrointestinal tract or inner nose or trachoebronchial system,Abnormal aortic valve morphology. Elevated or lowered cholesteral. Left ventricular hypertrophy. Malabsorption. Achalasia,Fabry disease,2. Malady Help
73,2,Delayed skeletal maturation. Feeding difficulties in infancy. Limited eye movements. Changes in coordination and speed of movements. Abnormal skin pigmentation. Abdominal pain,Hearing impairment. Blood in urine. Developmental regression. Difficulty with horizontal voluntary eye movements. Replacement of normal lung tissues by fibroblasts and collagen. Ataxia,Calcium deposits in the mitral valve. Scarring of liver caused by chronic liver disease. Abnormality of the skeletal system. Enlarged liver. Generalized myoclonic seizures,Gaucher disease,3. Google Custom
74,0,Flat feet. Sleep disturbance. Arrhythmia. Tendon rupture. Nausea and vomiting. Persistent blue hands/feet,Thin skin. Depressivity. Breathing stops (episodes). Limitation of joint mobility. Joint hyperflexibility. Frequent joint dislocation,Malabsorption. Umbilical hernia. Tingling/pins and needles. Stretchy skin. Decreased nerve conduction velocity. Absent/small abdominal wall muscles,Hypermobile Ehlers-Danlos syndrome,2. Malady Help
74,1,Behavioral abnormality. Joint pain. Congestive heart failure. Anemia. Fatigue. Muscle pain. Depressivity,Cognitive impairment. Mini-stroke. Progressive airflow obstruction. Picture: Conjunctival telangiectasia. Picture: Subcutaneous nodule (skin lesion). Lack of sweating,Nephrotic syndrome. Corneal dystrophy. Optic atrophy. Kidney damage/Kidney disease. Bundle branch block. Sensorineural hearing impairment,Fabry disease,1. Collaborative Filtering
74,2,Delayed puberty. Misalignment of the eyes. Depressivity. Fatigue. Double vision,Blood in urine. Anemia. Joint dislocation. Calcium deposits in the aortic valve. Abnormal pericardium morphology,Interstitial pulmonary abnormality. Enlarged liver. Low platelet count. Low blood cell count. Abnormal heart valve morphology,Gaucher disease,3. Google Custom
75,0,Flat feet. Sleep disturbance. Tingling/pins and needles. Depressivity. Persistent blue hands/feet,Vertigo. Malabsorption. Abnormal anus or rectum. Muscle pain. Stretchy skin,Constipation. Nausea and vomiting. Soft skin. Separation of layers of an artery,Hypermobile Ehlers-Danlos syndrome,3. Google Custom
75,1,Anxiety. Mini-stroke. Picture: Angiokeratoma (small raised dark-red spot). Picture: Conjunctival telangiectasia. Thickened skin,Corneal opacity. Abdominal pain. Behavioral abnormality. Atrioventricular block,Corneal dystrophy. Elevated or lowered cholesteral. Optic atrophy. Emphysema,Fabry disease,2. Malady Help
75,2,Hydrops fetalis: prenatal swelling. Feeding difficulties in infancy. Joint pain. Fever. Anemia. Changes in coordination and speed of movements,Recurrent fractures. Developmental regression. Fatigue. Difficulty swallowing. Abdominal pain. Bilateral tonic-clonic seizure,Osteopenia: Decreased bone density. Abnormal pericardium morphology. Ataxia. Retinopathy. Abnormality of the skeletal system,Gaucher disease,1. Collaborative Filtering
76,0,Gum abnormalities. Sleep disturbance. Malabsorption. Limitation of joint mobility. Muscle pain,Frequent joint dislocation. Vertigo. Osteoarthritis. Nausea and vomiting. Soft skin,Persistent blue hands/feet. Breathing stops (episodes). Fatigue. Extra bones in the cranium,Hypermobile Ehlers-Danlos syndrome,2. Malady Help
76,1,Behavioral abnormality. Nausea and vomiting. Arthritis. Hearing impairment. Progressive airflow obstruction,Fatigue. Picture: Angiokeratoma (small raised dark-red spot). Spider veins. Spider veins inside the mouth or conjunctiva or gastrointestinal tract or inner nose or trachoebronchial system. Joint pain,High urine protein levels. Emphysema. Elevated or lowered cholesteral. Abnormality of the endocardium. Malabsorption,Fabry disease,1. Collaborative Filtering
76,2,Hydrops fetalis: prenatal swelling. Abnormal bone structure. Anemia. Joint stiffness. Depressivity. Abdominal pain,Recurrent fractures. Fever. Breathing difficulties. Ataxia. Bone death due to lack of blood supply. Osteolysis: Breakdown of bone,Generalized myoclonic seizures. Englarged spleen. Bilateral tonic-clonic seizure. Interstitial pulmonary abnormality. Abnormal heart valve morphology,Gaucher disease,3. Google Custom
77,0,Gum enlargement. Foot deformity. Joint pain. Inguinal hernia. Scoliosis,Depressivity. Acid reflux. Muscle pain. Persistent blue hands/feet,Thin skin. Frequent joint dislocation. Arrhythmia. Extra bones in the cranium,Hypermobile Ehlers-Danlos syndrome,3. Google Custom
77,1,Congestive heart failure. Muscle pain. Arthritis. Behavioral abnormality. Thickened skin. Joint pain. Extreme thirst,Vision loss. Abdominal pain. Cognitive impairment. Picture: Subcutaneous nodule (skin lesion). Anemia. Spider veins,Elevated or lowered cholesteral. High urine protein levels. Abnormal myocardium morphology. Abnormality of the endocardium. Nephrotic syndrome. Optic atrophy,Fabry disease,1. Collaborative Filtering
77,2,Short stature. Tremor. Bleeding gums. Susceptable to bleeding. Fatigue,Blood in urine. Paralysis or weakness of one side of the body. Bone death due to lack of blood supply. Hydrocephalus (too much cerebrospinal fluid in the brain),Englarged spleen. Bone infection. Abnormality of the skeletal system. Generalized myoclonic seizures,Gaucher disease,2. Malady Help
78,0,Gum abnormalities. Flat feet. Frequent joint dislocation. Depressivity. Scoliosis,Muscle pain. Persistent blue hands/feet. Joint hyperflexibility. Thin skin,Osteoarthritis. Fatigue. Malabsorption. Widening of main artery,Hypermobile Ehlers-Danlos syndrome,2. Malady Help
78,1,Short stature. Increased urine output. Blood in urine. Spider veins inside the mouth or conjunctiva or gastrointestinal tract or inner nose or trachoebronchial system. Developmental regression. Anemia,Seizure. Fatigue. Anorexia. Corneal opacity. Mitral regurgitation,Cataract. Atrioventricular block. Bundle branch block. Kidney damage/Kidney disease. Malabsorption,Fabry disease,1. Collaborative Filtering
78,2,Abnormal bone structure. Short stature. Fever. Dry scales on the skin. Anemia,Bone pain. Breathing difficulties. Fatigue. Pulmonary arterial hypertension: High blood pressure in lungs,Abnormal pericardium morphology. Enlarged liver. Osteopenia: Decreased bone density. Englarged spleen,Gaucher disease,3. Google Custom
79,0,Flat feet. Sleep disturbance. Stretchy skin. Dry eyes. Muscle pain,Frequent joint dislocation. Persistent blue hands/feet. Nausea and vomiting. Joint hyperflexibility. Menstrual abnormalities (frequency heaviness irregularity),Limitation of joint mobility. Migraine. Inguinal hernia. Constipation. Extra bones in the cranium,Hypermobile Ehlers-Danlos syndrome,2. Malady Help
79,1,Congestive heart failure. Muscle pain. Spider veins inside the mouth or conjunctiva or gastrointestinal tract or inner nose or trachoebronchial system. Cognitive impairment. Fatigue,Abdominal pain. Anemia. Mini-stroke. Breathing difficulties. Blood in urine,Joint pain. Nephrotic syndrome. Renal insufficiency. Kidney damage/Kidney disease. Abnormal aortic valve morphology,Fabry disease,1. Collaborative Filtering
79,2,Arthrogryposis multiplex congenita (bent joints that cannot be straightened). Short stature. Developmental regression. Abdominal pain. Joint pain. Recurrent fractures,Difficulty swallowing. Tremor. Fever. Generalized myoclonic seizures. Abnormality of the skeletal system,Low platelet count. Osteopenia: Decreased bone density. Cranial nerve paralysis. Increased bone mineral density. Hydrocephalus (too much cerebrospinal fluid in the brain),Gaucher disease,3. Google Custom
80,0,Abnormal palate (roof of the mouth). Flat feet. Constipation. Muscle pain. Genital hernia. Osteoarthritis,Scoliosis. Vertigo. Soft skin. Persistent blue hands/feet. Joint pain,Inguinal hernia. Frequent joint dislocation. Stretchy skin. Extra bones in the cranium. Decreased nerve conduction velocity,Hypermobile Ehlers-Danlos syndrome,1. Collaborative Filtering
80,1,Short stature. Vertigo. Picture: Angiokeratoma (small raised dark-red spot). Anorexia. Lack of sweating,Joint pain. Blood in urine. Extreme thirst. Corneal opacity. Arthritis,Elevated or lowered cholesteral. Malabsorption. Nephrotic syndrome. Atrioventricular block. Corneal dystrophy,Fabry disease,3. Google Custom
80,2,Delayed puberty. Hydrops fetalis: prenatal swelling. Developmental regression. Susceptable to bleeding. Changes in coordination and speed of movements. Dry scales on the skin,Fatigue. Anemia. Joint stiffness. Corneal opacity. Bone pain. Bone death due to lack of blood supply,Generalized myoclonic seizures. Abnormal heart valve morphology. Bone infection. Interstitial pulmonary abnormality. Englarged spleen. Enlarged liver,Gaucher disease,2. Malady Help
81,0,Prominent eye folds. Drooping upper eyelid. Joint pain. Stretchy skin,Genital hernia. Migraine. Depressivity. Acid reflux,Soft skin. Persistent blue hands/feet. Fatigue. Extra bones in the cranium,Hypermobile Ehlers-Danlos syndrome,2. Malady Help
81,1,Picture: coarse facial features. Picture: Conjunctival telangiectasia. Fatigue. Picture: Subcutaneous nodule (skin lesion). Muscle pain. Anemia,Arthritis. Joint pain. Hearing impairment. Behavioral abnormality. Mini-stroke. Corneal opacity,Kidney damage/Kidney disease. Mitral regurgitation. High urine protein levels. Abnormal renal tubule morphology. Nephrotic syndrome. Achalasia,Fabry disease,3. Google Custom
81,2,Delayed puberty. Feeding difficulties in infancy. Difficulty swallowing. Recurrent fractures. Fatigue. Hearing impairment,Bone pain. Joint dislocation. Fever. Abnormal skin pigmentation. Breathing difficulties. Low platelet count,Abnormality of the skeletal system. Calcium deposits in the mitral valve. Ataxia. Generalized myoclonic seizures. Replacement of normal lung tissues by fibroblasts and collagen. Bone death due to lack of blood supply,Gaucher disease,1. Collaborative Filtering
82,0,Sleep disturbance. Flat feet. Thin skin. Joint hyperflexibility. Depressivity,Vertigo. Muscle pain. Persistent blue hands/feet. Unusual scars,Nausea and vomiting. Stretchy skin. Frequent joint dislocation. Widening of main artery,Hypermobile Ehlers-Danlos syndrome,1. Collaborative Filtering
82,1,Spider veins inside the mouth or conjunctiva or gastrointestinal tract or inner nose or trachoebronchial system. Behavioral abnormality. Anorexia. Blurred vision,Hearing impairment. Muscle pain. Arthritis. Picture: Angiokeratoma (small raised dark-red spot),Emphysema. Diabetes insipidus. Bundle branch block. Abnormality of the endocardium,Fabry disease,2. Malady Help
82,2,Delayed puberty. Abdominal pain. Difficulty swallowing. Hearing impairment. Joint dislocation,Fever. Anemia. Joint pain. Calcium deposits in the aortic valve. Abnormal heart valve morphology,Abnormality of the skeletal system. Englarged spleen. Generalized myoclonic seizures. Enlarged liver,Gaucher disease,3. Google Custom
83,0,Sleep disturbance. Abnormality of the wrist. Dental abnormalities. Malabsorption. Vertigo. Fatigue,Thin skin. Scoliosis. Nausea and vomiting. Stretchy skin. Joint hyperflexibility,Picture: Subcutaneous nodule (skin lesion). Arrhythmia. Constipation. Persistent blue hands/feet. Extra bones in the cranium,Hypermobile Ehlers-Danlos syndrome,2. Malady Help
83,1,Abdominal pain. Spider veins. Nausea and vomiting. Picture: Conjunctival telangiectasia. Thickened skin,Arthritis. Vertigo. Corneal opacity. Anemia,Lack of sweating. Glomerulopathy (diseased blood vessels in the kidneys). Corneal dystrophy. Malabsorption,Fabry disease,1. Collaborative Filtering
83,2,Misalignment of the eyes. Abnormal bone structure. Involuntary movements. Fever. Decreased muscle tone,Difficulty swallowing. Joint stiffness. Abdominal pain. Englarged spleen,Low platelet count. Ataxia. Calcium deposits in the mitral valve. Osteopenia: Decreased bone density,Gaucher disease,3. Google Custom
84,0,Sleep disturbance. Limitation of joint mobility. Thin skin. Frequent joint dislocation,Migraine. Vertigo. Fatigue. Persistent blue hands/feet,Stretchy skin. Joint pain. Poorly functioning veins,Hypermobile Ehlers-Danlos syndrome,3. Google Custom
84,1,Vision loss. Spider veins. Anemia. Hearing impairment. Persistent swelling in arm/leg,Arthritis. Picture: Conjunctival telangiectasia. Fatigue. Spider veins inside the mouth or conjunctiva or gastrointestinal tract or inner nose or trachoebronchial system. Mitral regurgitation,High urine protein levels. Renal insufficiency. Optic atrophy. Kidney damage/Kidney disease,Fabry disease,2. Malady Help
84,2,Misalignment of the eyes. Hydrops fetalis: prenatal swelling. Breathing difficulties. Anemia. Changes in coordination and speed of movements. Difficulty swallowing,Fatigue. Difficulty with horizontal voluntary eye movements. Depressivity. Abdominal pain. Calcium deposits in the mitral valve,Ataxia. Abnormal pericardium morphology. Cherry red spot of the macula. Enlarged liver. Low platelet count,Gaucher disease,1. Collaborative Filtering
85,0,Foot deformity. Abnormal palate (roof of the mouth). Flat feet. Vertigo. Fatigue. Limitation of joint mobility,Tendon rupture. Inguinal hernia. Genital hernia. Decreased fertility. Stretchy skin. Nausea and vomiting,Joint hyperflexibility. Muscle pain. Migraine. Frequent joint dislocation. Absent/small abdominal wall muscles. Decreased nerve conduction velocity,Hypermobile Ehlers-Danlos syndrome,3. Google Custom
85,1,Picture: thick lower lip. Spider veins. Increased urine output. Lack of sweating. Joint pain,Muscle pain. Picture: Subcutaneous nodule (skin lesion). Anemia. Vision loss. Abdominal pain,Cataract. Emphysema. Reduced bone mineral density. Abnormal aortic valve morphology,Fabry disease,1. Collaborative Filtering
85,2,Abnormal bone structure. Delayed skeletal maturation. Fever. Changes in coordination and speed of movements. Bone pain,Anemia. Depressivity. Recurrent fractures. Replacement of normal lung tissues by fibroblasts and collagen. Englarged spleen,Generalized myoclonic seizures. Abnormality of the skeletal system. Hepatitis. Low platelet count,Gaucher disease,2. Malady Help
86,0,Sleep disturbance. Abnormality of the wrist. Constipation. Stretchy skin. Depressivity,Fatigue. Joint pain. Persistent blue hands/feet. Malabsorption. Inflamed gums,Frequent joint dislocation. Vertigo. Osteoarthritis. Decreased nerve conduction velocity,Hypermobile Ehlers-Danlos syndrome,2. Malady Help
86,1,Delayed puberty. Spider veins inside the mouth or conjunctiva or gastrointestinal tract or inner nose or trachoebronchial system. Anemia. Mini-stroke. Hearing impairment,Muscle pain. Picture: Angiokeratoma (small raised dark-red spot). Blurred vision. Cognitive impairment. Behavioral abnormality,Optic atrophy. Nephrotic syndrome. Atrioventricular block. Emphysema. Mitral regurgitation,Fabry disease,1. Collaborative Filtering
86,2,Delayed skeletal maturation. Abnormal bone structure. Arthrogryposis multiplex congenita (bent joints that cannot be straightened). Bone pain. Recurrent fractures. Abdominal pain,Difficulty swallowing. Paralysis or weakness of one side of the body. Abnormal skin pigmentation. Changes in coordination and speed of movements. Breathing difficulties. Osteopenia: Decreased bone density,Englarged spleen. Elevated C-reactive protein level. Scarring of liver caused by chronic liver disease. Interstitial pulmonary abnormality. Retinopathy. Abnormality of the skeletal system,Gaucher disease,3. Google Custom
87,0,Sleep disturbance. Foot deformity. Picture: Subcutaneous nodule (skin lesion). Fatigue. Joint hyperflexibility,Joint pain. Dry eyes. Frequent joint dislocation. Vertigo. Persistent blue hands/feet,Arrhythmia. Osteoarthritis. Muscle pain. Extra bones in the cranium,Hypermobile Ehlers-Danlos syndrome,2. Malady Help
87,1,Thickened skin. Lack of sweating. Picture: Subcutaneous nodule (skin lesion). Spider veins,Arthritis. Muscle pain. Anorexia. Abnormality of the endocardium,Diabetes insipidus. Cataract. Abnormal aortic valve morphology,Fabry disease,3. Google Custom
87,2,Abnormal bone structure. Feeding difficulties in infancy. Difficulty swallowing. Abdominal pain. Abnormal skin pigmentation. Decreased muscle tone,Difficulty with horizontal voluntary eye movements. Dry scales on the skin. Depressivity. Anemia. Abnormal myocardium morphology. Low platelet count,Bilateral tonic-clonic seizure. Increased antibody level in blood. Low blood cell count. Hydrocephalus (too much cerebrospinal fluid in the brain). Pulmonary arterial hypertension: High blood pressure in lungs,Gaucher disease,1. Collaborative Filtering
88,0,Sleep disturbance. Gum enlargement. Breathing stops (episodes). Depressivity. Genital hernia,Malabsorption. Stretchy skin. Vertigo. Fatigue. Frequent joint dislocation,Migraine. Arrhythmia. Joint hyperflexibility. Bladder hernia. Widening of main artery,Hypermobile Ehlers-Danlos syndrome,2. Malady Help
88,1,Short stature. Thickened skin. Arthritis. Spider veins. Chest pain. Picture: Subcutaneous nodule (skin lesion),Corneal opacity. Joint pain. Progressive airflow obstruction. Muscle pain. Fatigue,Nephrotic syndrome. Abnormal aortic valve morphology. Hypertrophic cardiomyopathy. Kidney damage/Kidney disease. Abnormal renal tubule morphology,Fabry disease,1. Collaborative Filtering
88,2,Misalignment of the eyes. Delayed skeletal maturation. Corneal opacity. Abdominal pain. Recurrent fractures,Fatigue. Fever. Anemia. Increased bone mineral density. Calcium deposits in the aortic valve,Englarged spleen. Cherry red spot of the macula. Abnormal heart valve morphology. Retinopathy. Bilateral tonic-clonic seizure,Gaucher disease,3. Google Custom
